
  1   1001     1.54056     0.00000     0.00000     0.00000     0.00000    0
     0     0     0
 2Theta	Yobs	Ycal	Yobs-Ycal	Backg	Posr	(hkl)	K
     -5.0000	 24.2083	 24.2083	 -6.0521	  0.0000
     -4.9900	 21.3220	 21.3219	 -6.0520	  0.0000
     -4.9800	 20.2424	 20.2423	 -6.0520	  0.0000
     -4.9700	 19.5643	 19.5642	 -6.0520	  0.0000
     -4.9600	 19.0710	 19.0710	 -6.0520	  0.0000
     -4.9500	 18.6864	 18.6863	 -6.0520	  0.0000
     -4.9400	 18.3740	 18.3740	 -6.0520	  0.0000
     -4.9300	 18.1136	 18.1135	 -6.0520	  0.0000
     -4.9200	 17.8924	 17.8924	 -6.0520	  0.0000
     -4.9100	 17.7021	 17.7020	 -6.0520	  0.0000
     -4.9000	 17.5367	 17.5366	 -6.0520	  0.0000
     -4.8900	 17.3918	 17.3917	 -6.0520	  0.0000
     -4.8800	 17.2640	 17.2640	 -6.0520	  0.0000
     -4.8700	 17.1509	 17.1508	 -6.0520	  0.0000
     -4.8600	 17.0502	 17.0502	 -6.0520	  0.0000
     -4.8500	 16.9603	 16.9603	 -6.0520	  0.0000
     -4.8400	 16.8798	 16.8798	 -6.0521	  0.0000
     -4.8300	 16.8075	 16.8075	 -6.0521	  0.0000
     -4.8200	 16.7425	 16.7425	 -6.0521	  0.0000
     -4.8100	 16.6838	 16.6838	 -6.0521	  0.0000
     -4.8000	 16.6309	 16.6308	 -6.0521	  0.0000
     -4.7900	 16.5829	 16.5829	 -6.0521	  0.0000
     -4.7800	 16.5395	 16.5395	 -6.0521	  0.0000
     -4.7700	 16.5002	 16.5001	 -6.0521	  0.0000
     -4.7600	 16.4644	 16.4644	 -6.0521	  0.0000
     -4.7500	 16.4320	 16.4320	 -6.0521	  0.0000
     -4.7400	 16.4025	 16.4025	 -6.0521	  0.0000
     -4.7300	 16.3757	 16.3757	 -6.0521	  0.0000
     -4.7200	 16.3514	 16.3513	 -6.0521	  0.0000
     -4.7100	 16.3292	 16.3292	 -6.0521	  0.0000
     -4.7000	 16.3091	 16.3091	 -6.0521	  0.0000
     -4.6900	 16.2909	 16.2909	 -6.0521	  0.0000
     -4.6800	 16.2743	 16.2743	 -6.0521	  0.0000
     -4.6700	 16.2594	 16.2594	 -6.0521	  0.0000
     -4.6600	 16.2458	 16.2458	 -6.0521	  0.0000
     -4.6500	 16.2337	 16.2336	 -6.0521	  0.0000
     -4.6400	 16.2227	 16.2227	 -6.0521	  0.0000
     -4.6300	 16.2129	 16.2129	 -6.0521	  0.0000
     -4.6200	 16.2041	 16.2041	 -6.0521	  0.0000
     -4.6100	 16.1964	 16.1964	 -6.0521	  0.0000
     -4.6000	 16.1896	 16.1895	 -6.0521	  0.0000
     -4.5900	 16.1836	 16.1836	 -6.0521	  0.0000
     -4.5800	 16.1785	 16.1784	 -6.0521	  0.0000
     -4.5700	 16.1741	 16.1741	 -6.0521	  0.0000
     -4.5600	 16.1704	 16.1704	 -6.0521	  0.0000
     -4.5500	 16.1675	 16.1674	 -6.0521	  0.0000
     -4.5400	 16.1651	 16.1651	 -6.0521	  0.0000
     -4.5300	 16.1634	 16.1634	 -6.0521	  0.0000
     -4.5200	 16.1623	 16.1623	 -6.0521	  0.0000
     -4.5100	 16.1617	 16.1617	 -6.0521	  0.0000
     -4.5000	 16.1616	 16.1616	 -6.0521	  0.0000
     -4.4900	 16.1621	 16.1621	 -6.0521	  0.0000
     -4.4800	 16.1630	 16.1630	 -6.0521	  0.0000
     -4.4700	 16.1644	 16.1644	 -6.0521	  0.0000
     -4.4600	 16.1662	 16.1662	 -6.0521	  0.0000
     -4.4500	 16.1685	 16.1685	 -6.0521	  0.0000
     -4.4400	 16.1712	 16.1711	 -6.0521	  0.0000
     -4.4300	 16.1742	 16.1742	 -6.0521	  0.0000
     -4.4200	 16.1777	 16.1777	 -6.0521	  0.0000
     -4.4100	 16.1815	 16.1815	 -6.0521	  0.0000
     -4.4000	 16.1857	 16.1857	 -6.0521	  0.0000
     -4.3900	 16.1902	 16.1902	 -6.0521	  0.0000
     -4.3800	 16.1951	 16.1951	 -6.0521	  0.0000
     -4.3700	 16.2003	 16.2003	 -6.0521	  0.0000
     -4.3600	 16.2059	 16.2059	 -6.0521	  0.0000
     -4.3500	 16.2117	 16.2117	 -6.0521	  0.0000
     -4.3400	 16.2179	 16.2179	 -6.0521	  0.0000
     -4.3300	 16.2244	 16.2244	 -6.0521	  0.0000
     -4.3200	 16.2312	 16.2312	 -6.0521	  0.0000
     -4.3100	 16.2383	 16.2383	 -6.0521	  0.0000
     -4.3000	 16.2456	 16.2456	 -6.0521	  0.0000
     -4.2900	 16.2533	 16.2533	 -6.0521	  0.0000
     -4.2800	 16.2612	 16.2612	 -6.0521	  0.0000
     -4.2700	 16.2694	 16.2695	 -6.0521	  0.0000
     -4.2600	 16.2780	 16.2780	 -6.0521	  0.0000
     -4.2500	 16.2867	 16.2867	 -6.0521	  0.0000
     -4.2400	 16.2958	 16.2958	 -6.0521	  0.0000
     -4.2300	 16.3051	 16.3051	 -6.0521	  0.0000
     -4.2200	 16.3146	 16.3146	 -6.0521	  0.0000
     -4.2100	 16.3245	 16.3245	 -6.0521	  0.0000
     -4.2000	 16.3346	 16.3346	 -6.0521	  0.0000
     -4.1900	 16.3449	 16.3449	 -6.0521	  0.0000
     -4.1800	 16.3556	 16.3556	 -6.0521	  0.0000
     -4.1700	 16.3664	 16.3664	 -6.0521	  0.0000
     -4.1600	 16.3776	 16.3776	 -6.0521	  0.0000
     -4.1500	 16.3890	 16.3890	 -6.0521	  0.0000
     -4.1400	 16.4006	 16.4006	 -6.0521	  0.0000
     -4.1300	 16.4125	 16.4125	 -6.0521	  0.0000
     -4.1200	 16.4247	 16.4247	 -6.0521	  0.0000
     -4.1100	 16.4371	 16.4371	 -6.0521	  0.0000
     -4.1000	 16.4498	 16.4498	 -6.0521	  0.0000
     -4.0900	 16.4627	 16.4627	 -6.0521	  0.0000
     -4.0800	 16.4759	 16.4759	 -6.0521	  0.0000
     -4.0700	 16.4893	 16.4893	 -6.0521	  0.0000
     -4.0600	 16.5030	 16.5030	 -6.0521	  0.0000
     -4.0500	 16.5170	 16.5170	 -6.0521	  0.0000
     -4.0400	 16.5312	 16.5312	 -6.0521	  0.0000
     -4.0300	 16.5457	 16.5457	 -6.0521	  0.0000
     -4.0200	 16.5604	 16.5604	 -6.0521	  0.0000
     -4.0100	 16.5754	 16.5754	 -6.0521	  0.0000
     -4.0000	 16.5907	 16.5907	 -6.0521	  0.0000
     -3.9900	 16.6062	 16.6062	 -6.0521	  0.0000
     -3.9800	 16.6220	 16.6220	 -6.0521	  0.0000
     -3.9700	 16.6380	 16.6380	 -6.0521	  0.0000
     -3.9600	 16.6543	 16.6543	 -6.0521	  0.0000
     -3.9500	 16.6709	 16.6709	 -6.0521	  0.0000
     -3.9400	 16.6878	 16.6878	 -6.0521	  0.0000
     -3.9300	 16.7049	 16.7049	 -6.0521	  0.0000
     -3.9200	 16.7223	 16.7223	 -6.0521	  0.0000
     -3.9100	 16.7400	 16.7400	 -6.0521	  0.0000
     -3.9000	 16.7579	 16.7579	 -6.0521	  0.0000
     -3.8900	 16.7761	 16.7762	 -6.0521	  0.0000
     -3.8800	 16.7947	 16.7947	 -6.0521	  0.0000
     -3.8700	 16.8134	 16.8135	 -6.0521	  0.0000
     -3.8600	 16.8325	 16.8325	 -6.0521	  0.0000
     -3.8500	 16.8519	 16.8519	 -6.0521	  0.0000
     -3.8400	 16.8715	 16.8715	 -6.0521	  0.0000
     -3.8300	 16.8915	 16.8915	 -6.0521	  0.0000
     -3.8200	 16.9117	 16.9117	 -6.0521	  0.0000
     -3.8100	 16.9322	 16.9322	 -6.0521	  0.0000
     -3.8000	 16.9530	 16.9530	 -6.0521	  0.0000
     -3.7900	 16.9742	 16.9742	 -6.0521	  0.0000
     -3.7800	 16.9956	 16.9956	 -6.0521	  0.0000
     -3.7700	 17.0173	 17.0173	 -6.0521	  0.0000
     -3.7600	 17.0393	 17.0393	 -6.0521	  0.0000
     -3.7500	 17.0616	 17.0616	 -6.0521	  0.0000
     -3.7400	 17.0842	 17.0843	 -6.0521	  0.0000
     -3.7300	 17.1072	 17.1072	 -6.0521	  0.0000
     -3.7200	 17.1304	 17.1304	 -6.0521	  0.0000
     -3.7100	 17.1540	 17.1540	 -6.0521	  0.0000
     -3.7000	 17.1778	 17.1778	 -6.0521	  0.0000
     -3.6900	 17.2020	 17.2020	 -6.0521	  0.0000
     -3.6800	 17.2265	 17.2265	 -6.0521	  0.0000
     -3.6700	 17.2513	 17.2513	 -6.0521	  0.0000
     -3.6600	 17.2764	 17.2764	 -6.0521	  0.0000
     -3.6500	 17.3018	 17.3018	 -6.0521	  0.0000
     -3.6400	 17.3275	 17.3275	 -6.0521	  0.0000
     -3.6300	 17.3535	 17.3535	 -6.0521	  0.0000
     -3.6200	 17.3799	 17.3799	 -6.0521	  0.0000
     -3.6100	 17.4065	 17.4065	 -6.0521	  0.0000
     -3.6000	 17.4334	 17.4334	 -6.0521	  0.0000
     -3.5900	 17.4607	 17.4607	 -6.0521	  0.0000
     -3.5800	 17.4882	 17.4882	 -6.0521	  0.0000
     -3.5700	 17.5160	 17.5160	 -6.0521	  0.0000
     -3.5600	 17.5441	 17.5441	 -6.0521	  0.0000
     -3.5500	 17.5725	 17.5725	 -6.0521	  0.0000
     -3.5400	 17.6011	 17.6011	 -6.0521	  0.0000
     -3.5300	 17.6300	 17.6300	 -6.0521	  0.0000
     -3.5200	 17.6591	 17.6591	 -6.0521	  0.0000
     -3.5100	 17.6885	 17.6885	 -6.0521	  0.0000
     -3.5000	 17.7181	 17.7181	 -6.0521	  0.0000
     -3.4900	 17.7479	 17.7479	 -6.0521	  0.0000
     -3.4800	 17.7779	 17.7779	 -6.0521	  0.0000
     -3.4700	 17.8080	 17.8080	 -6.0521	  0.0000
     -3.4600	 17.8383	 17.8383	 -6.0521	  0.0000
     -3.4500	 17.8687	 17.8688	 -6.0521	  0.0000
     -3.4400	 17.8993	 17.8993	 -6.0521	  0.0000
     -3.4300	 17.9298	 17.9299	 -6.0521	  0.0000
     -3.4200	 17.9605	 17.9605	 -6.0521	  0.0000
     -3.4100	 17.9911	 17.9911	 -6.0521	  0.0000
     -3.4000	 18.0217	 18.0217	 -6.0521	  0.0000
     -3.3900	 18.0521	 18.0522	 -6.0521	  0.0000
     -3.3800	 18.0825	 18.0825	 -6.0521	  0.0000
     -3.3700	 18.1127	 18.1127	 -6.0521	  0.0000
     -3.3600	 18.1427	 18.1427	 -6.0521	  0.0000
     -3.3500	 18.1723	 18.1723	 -6.0521	  0.0000
     -3.3400	 18.2017	 18.2017	 -6.0521	  0.0000
     -3.3300	 18.2306	 18.2306	 -6.0521	  0.0000
     -3.3200	 18.2590	 18.2590	 -6.0521	  0.0000
     -3.3100	 18.2868	 18.2869	 -6.0521	  0.0000
     -3.3000	 18.3141	 18.3141	 -6.0521	  0.0000
     -3.2900	 18.3406	 18.3406	 -6.0521	  0.0000
     -3.2800	 18.3663	 18.3663	 -6.0521	  0.0000
     -3.2700	 18.3911	 18.3911	 -6.0521	  0.0000
     -3.2600	 18.4149	 18.4149	 -6.0521	  0.0000
     -3.2500	 18.4377	 18.4377	 -6.0521	  0.0000
     -3.2400	 18.4592	 18.4592	 -6.0521	  0.0000
     -3.2300	 18.4795	 18.4796	 -6.0521	  0.0000
     -3.2200	 18.4985	 18.4985	 -6.0521	  0.0000
     -3.2100	 18.5160	 18.5160	 -6.0521	  0.0000
     -3.2000	 18.5320	 18.5320	 -6.0521	  0.0000
     -3.1900	 18.5464	 18.5464	 -6.0521	  0.0000
     -3.1800	 18.5591	 18.5591	 -6.0521	  0.0000
     -3.1700	 18.5700	 18.5700	 -6.0521	  0.0000
     -3.1600	 18.5791	 18.5791	 -6.0521	  0.0000
     -3.1500	 18.5863	 18.5863	 -6.0521	  0.0000
     -3.1400	 18.5916	 18.5917	 -6.0521	  0.0000
     -3.1300	 18.5950	 18.5950	 -6.0521	  0.0000
     -3.1200	 18.5964	 18.5964	 -6.0521	  0.0000
     -3.1100	 18.5958	 18.5958	 -6.0521	  0.0000
     -3.1000	 18.5933	 18.5933	 -6.0521	  0.0000
     -3.0900	 18.5888	 18.5888	 -6.0521	  0.0000
     -3.0800	 18.5824	 18.5824	 -6.0521	  0.0000
     -3.0700	 18.5741	 18.5741	 -6.0521	  0.0000
     -3.0600	 18.5639	 18.5639	 -6.0521	  0.0000
     -3.0500	 18.5520	 18.5520	 -6.0521	  0.0000
     -3.0400	 18.5384	 18.5384	 -6.0521	  0.0000
     -3.0300	 18.5231	 18.5232	 -6.0521	  0.0000
     -3.0200	 18.5063	 18.5064	 -6.0521	  0.0000
     -3.0100	 18.4881	 18.4881	 -6.0521	  0.0000
     -3.0000	 18.4684	 18.4684	 -6.0521	  0.0000
     -2.9900	 18.4475	 18.4475	 -6.0521	  0.0000
     -2.9800	 18.4254	 18.4254	 -6.0521	  0.0000
     -2.9700	 18.4021	 18.4021	 -6.0521	  0.0000
     -2.9600	 18.3779	 18.3779	 -6.0521	  0.0000
     -2.9500	 18.3527	 18.3527	 -6.0521	  0.0000
     -2.9400	 18.3267	 18.3267	 -6.0521	  0.0000
     -2.9300	 18.3000	 18.3000	 -6.0521	  0.0000
     -2.9200	 18.2726	 18.2726	 -6.0521	  0.0000
     -2.9100	 18.2446	 18.2446	 -6.0521	  0.0000
     -2.9000	 18.2161	 18.2161	 -6.0521	  0.0000
     -2.8900	 18.1872	 18.1872	 -6.0521	  0.0000
     -2.8800	 18.1579	 18.1579	 -6.0521	  0.0000
     -2.8700	 18.1283	 18.1283	 -6.0521	  0.0000
     -2.8600	 18.0984	 18.0984	 -6.0521	  0.0000
     -2.8500	 18.0683	 18.0683	 -6.0521	  0.0000
     -2.8400	 18.0381	 18.0381	 -6.0521	  0.0000
     -2.8300	 18.0078	 18.0078	 -6.0521	  0.0000
     -2.8200	 17.9774	 17.9774	 -6.0521	  0.0000
     -2.8100	 17.9470	 17.9470	 -6.0521	  0.0000
     -2.8000	 17.9166	 17.9166	 -6.0521	  0.0000
     -2.7900	 17.8862	 17.8863	 -6.0521	  0.0000
     -2.7800	 17.8560	 17.8560	 -6.0521	  0.0000
     -2.7700	 17.8258	 17.8258	 -6.0521	  0.0000
     -2.7600	 17.7957	 17.7958	 -6.0521	  0.0000
     -2.7500	 17.7658	 17.7658	 -6.0521	  0.0000
     -2.7400	 17.7361	 17.7361	 -6.0521	  0.0000
     -2.7300	 17.7065	 17.7065	 -6.0521	  0.0000
     -2.7200	 17.6772	 17.6772	 -6.0521	  0.0000
     -2.7100	 17.6480	 17.6480	 -6.0521	  0.0000
     -2.7000	 17.6191	 17.6191	 -6.0521	  0.0000
     -2.6900	 17.5904	 17.5904	 -6.0521	  0.0000
     -2.6800	 17.5620	 17.5620	 -6.0521	  0.0000
     -2.6700	 17.5337	 17.5338	 -6.0521	  0.0000
     -2.6600	 17.5058	 17.5058	 -6.0521	  0.0000
     -2.6500	 17.4781	 17.4781	 -6.0521	  0.0000
     -2.6400	 17.4507	 17.4507	 -6.0521	  0.0000
     -2.6300	 17.4236	 17.4236	 -6.0521	  0.0000
     -2.6200	 17.3967	 17.3967	 -6.0521	  0.0000
     -2.6100	 17.3701	 17.3701	 -6.0521	  0.0000
     -2.6000	 17.3438	 17.3438	 -6.0521	  0.0000
     -2.5900	 17.3178	 17.3178	 -6.0521	  0.0000
     -2.5800	 17.2920	 17.2920	 -6.0521	  0.0000
     -2.5700	 17.2666	 17.2666	 -6.0521	  0.0000
     -2.5600	 17.2414	 17.2414	 -6.0521	  0.0000
     -2.5500	 17.2165	 17.2165	 -6.0521	  0.0000
     -2.5400	 17.1919	 17.1919	 -6.0521	  0.0000
     -2.5300	 17.1675	 17.1675	 -6.0521	  0.0000
     -2.5200	 17.1434	 17.1435	 -6.0521	  0.0000
     -2.5100	 17.1197	 17.1197	 -6.0521	  0.0000
     -2.5000	 17.0962	 17.0962	 -6.0521	  0.0000
     -2.4900	 17.0729	 17.0729	 -6.0521	  0.0000
     -2.4800	 17.0500	 17.0500	 -6.0521	  0.0000
     -2.4700	 17.0273	 17.0273	 -6.0521	  0.0000
     -2.4600	 17.0049	 17.0049	 -6.0521	  0.0000
     -2.4500	 16.9827	 16.9827	 -6.0521	  0.0000
     -2.4400	 16.9608	 16.9608	 -6.0521	  0.0000
     -2.4300	 16.9392	 16.9392	 -6.0521	  0.0000
     -2.4200	 16.9178	 16.9178	 -6.0521	  0.0000
     -2.4100	 16.8967	 16.8967	 -6.0521	  0.0000
     -2.4000	 16.8759	 16.8759	 -6.0521	  0.0000
     -2.3900	 16.8552	 16.8553	 -6.0521	  0.0000
     -2.3800	 16.8349	 16.8349	 -6.0521	  0.0000
     -2.3700	 16.8148	 16.8148	 -6.0521	  0.0000
     -2.3600	 16.7949	 16.7949	 -6.0521	  0.0000
     -2.3500	 16.7753	 16.7753	 -6.0521	  0.0000
     -2.3400	 16.7559	 16.7559	 -6.0521	  0.0000
     -2.3300	 16.7367	 16.7367	 -6.0521	  0.0000
     -2.3200	 16.7178	 16.7178	 -6.0521	  0.0000
     -2.3100	 16.6991	 16.6991	 -6.0521	  0.0000
     -2.3000	 16.6806	 16.6806	 -6.0521	  0.0000
     -2.2900	 16.6624	 16.6624	 -6.0521	  0.0000
     -2.2800	 16.6444	 16.6444	 -6.0521	  0.0000
     -2.2700	 16.6266	 16.6266	 -6.0521	  0.0000
     -2.2600	 16.6090	 16.6090	 -6.0521	  0.0000
     -2.2500	 16.5916	 16.5916	 -6.0521	  0.0000
     -2.2400	 16.5744	 16.5744	 -6.0521	  0.0000
     -2.2300	 16.5575	 16.5575	 -6.0521	  0.0000
     -2.2200	 16.5408	 16.5408	 -6.0521	  0.0000
     -2.2100	 16.5242	 16.5242	 -6.0521	  0.0000
     -2.2000	 16.5079	 16.5079	 -6.0521	  0.0000
     -2.1900	 16.4918	 16.4918	 -6.0521	  0.0000
     -2.1800	 16.4758	 16.4758	 -6.0521	  0.0000
     -2.1700	 16.4601	 16.4601	 -6.0521	  0.0000
     -2.1600	 16.4446	 16.4446	 -6.0521	  0.0000
     -2.1500	 16.4292	 16.4292	 -6.0521	  0.0000
     -2.1400	 16.4141	 16.4141	 -6.0521	  0.0000
     -2.1300	 16.3991	 16.3991	 -6.0521	  0.0000
     -2.1200	 16.3843	 16.3843	 -6.0521	  0.0000
     -2.1100	 16.3698	 16.3698	 -6.0521	  0.0000
     -2.1000	 16.3554	 16.3554	 -6.0521	  0.0000
     -2.0900	 16.3411	 16.3411	 -6.0521	  0.0000
     -2.0800	 16.3271	 16.3271	 -6.0521	  0.0000
     -2.0700	 16.3132	 16.3132	 -6.0521	  0.0000
     -2.0600	 16.2996	 16.2996	 -6.0521	  0.0000
     -2.0500	 16.2861	 16.2861	 -6.0521	  0.0000
     -2.0400	 16.2727	 16.2727	 -6.0521	  0.0000
     -2.0300	 16.2596	 16.2596	 -6.0521	  0.0000
     -2.0200	 16.2466	 16.2466	 -6.0521	  0.0000
     -2.0100	 16.2338	 16.2338	 -6.0521	  0.0000
     -2.0000	 16.2212	 16.2212	 -6.0521	  0.0000
     -1.9900	 16.2087	 16.2087	 -6.0521	  0.0000
     -1.9800	 16.1964	 16.1964	 -6.0521	  0.0000
     -1.9700	 16.1843	 16.1843	 -6.0521	  0.0000
     -1.9600	 16.1723	 16.1723	 -6.0521	  0.0000
     -1.9500	 16.1605	 16.1606	 -6.0521	  0.0000
     -1.9400	 16.1489	 16.1489	 -6.0521	  0.0000
     -1.9300	 16.1375	 16.1375	 -6.0521	  0.0000
     -1.9200	 16.1262	 16.1262	 -6.0521	  0.0000
     -1.9100	 16.1150	 16.1151	 -6.0521	  0.0000
     -1.9000	 16.1041	 16.1041	 -6.0521	  0.0000
     -1.8900	 16.0933	 16.0933	 -6.0521	  0.0000
     -1.8800	 16.0826	 16.0827	 -6.0521	  0.0000
     -1.8700	 16.0722	 16.0722	 -6.0521	  0.0000
     -1.8600	 16.0619	 16.0619	 -6.0521	  0.0000
     -1.8500	 16.0517	 16.0517	 -6.0521	  0.0000
     -1.8400	 16.0417	 16.0418	 -6.0521	  0.0000
     -1.8300	 16.0319	 16.0319	 -6.0521	  0.0000
     -1.8200	 16.0223	 16.0223	 -6.0521	  0.0000
     -1.8100	 16.0128	 16.0128	 -6.0521	  0.0000
     -1.8000	 16.0035	 16.0035	 -6.0521	  0.0000
     -1.7900	 15.9943	 15.9943	 -6.0521	  0.0000
     -1.7800	 15.9853	 15.9853	 -6.0521	  0.0000
     -1.7700	 15.9765	 15.9765	 -6.0521	  0.0000
     -1.7600	 15.9679	 15.9679	 -6.0521	  0.0000
     -1.7500	 15.9594	 15.9594	 -6.0521	  0.0000
     -1.7400	 15.9511	 15.9511	 -6.0521	  0.0000
     -1.7300	 15.9430	 15.9430	 -6.0521	  0.0000
     -1.7200	 15.9350	 15.9350	 -6.0521	  0.0000
     -1.7100	 15.9272	 15.9272	 -6.0521	  0.0000
     -1.7000	 15.9196	 15.9196	 -6.0521	  0.0000
     -1.6900	 15.9122	 15.9122	 -6.0521	  0.0000
     -1.6800	 15.9050	 15.9050	 -6.0521	  0.0000
     -1.6700	 15.8979	 15.8979	 -6.0521	  0.0000
     -1.6600	 15.8910	 15.8910	 -6.0521	  0.0000
     -1.6500	 15.8844	 15.8844	 -6.0521	  0.0000
     -1.6400	 15.8779	 15.8779	 -6.0521	  0.0000
     -1.6300	 15.8716	 15.8716	 -6.0521	  0.0000
     -1.6200	 15.8655	 15.8655	 -6.0521	  0.0000
     -1.6100	 15.8596	 15.8596	 -6.0521	  0.0000
     -1.6000	 15.8540	 15.8540	 -6.0521	  0.0000
     -1.5900	 15.8485	 15.8485	 -6.0521	  0.0000
     -1.5800	 15.8433	 15.8433	 -6.0521	  0.0000
     -1.5700	 15.8383	 15.8383	 -6.0521	  0.0000
     -1.5600	 15.8335	 15.8335	 -6.0521	  0.0000
     -1.5500	 15.8290	 15.8290	 -6.0521	  0.0000
     -1.5400	 15.8247	 15.8247	 -6.0521	  0.0000
     -1.5300	 15.8206	 15.8206	 -6.0521	  0.0000
     -1.5200	 15.8168	 15.8169	 -6.0521	  0.0000
     -1.5100	 15.8133	 15.8133	 -6.0521	  0.0000
     -1.5000	 15.8101	 15.8101	 -6.0521	  0.0000
     -1.4900	 15.8071	 15.8071	 -6.0521	  0.0000
     -1.4800	 15.8045	 15.8045	 -6.0521	  0.0000
     -1.4700	 15.8021	 15.8021	 -6.0521	  0.0000
     -1.4600	 15.8000	 15.8000	 -6.0521	  0.0000
     -1.4500	 15.7983	 15.7983	 -6.0521	  0.0000
     -1.4400	 15.7969	 15.7969	 -6.0521	  0.0000
     -1.4300	 15.7959	 15.7959	 -6.0521	  0.0000
     -1.4200	 15.7952	 15.7952	 -6.0521	  0.0000
     -1.4100	 15.7949	 15.7949	 -6.0521	  0.0000
     -1.4000	 15.7950	 15.7951	 -6.0521	  0.0000
     -1.3900	 15.7956	 15.7956	 -6.0521	  0.0000
     -1.3800	 15.7966	 15.7966	 -6.0521	  0.0000
     -1.3700	 15.7980	 15.7980	 -6.0521	  0.0000
     -1.3600	 15.7999	 15.7999	 -6.0521	  0.0000
     -1.3500	 15.8023	 15.8023	 -6.0521	  0.0000
     -1.3400	 15.8053	 15.8053	 -6.0521	  0.0000
     -1.3300	 15.8088	 15.8088	 -6.0521	  0.0000
     -1.3200	 15.8128	 15.8128	 -6.0521	  0.0000
     -1.3100	 15.8175	 15.8175	 -6.0521	  0.0000
     -1.3000	 15.8229	 15.8229	 -6.0521	  0.0000
     -1.2900	 15.8289	 15.8289	 -6.0521	  0.0000
     -1.2800	 15.8357	 15.8357	 -6.0521	  0.0000
     -1.2700	 15.8432	 15.8432	 -6.0521	  0.0000
     -1.2600	 15.8516	 15.8516	 -6.0521	  0.0000
     -1.2500	 15.8608	 15.8608	 -6.0521	  0.0000
     -1.2400	 15.8708	 15.8709	 -6.0521	  0.0000
     -1.2300	 15.8819	 15.8819	 -6.0521	  0.0000
     -1.2200	 15.8940	 15.8940	 -6.0521	  0.0000
     -1.2100	 15.9072	 15.9072	 -6.0521	  0.0000
     -1.2000	 15.9215	 15.9215	 -6.0521	  0.0000
     -1.1900	 15.9371	 15.9371	 -6.0521	  0.0000
     -1.1800	 15.9539	 15.9539	 -6.0521	  0.0000
     -1.1700	 15.9721	 15.9721	 -6.0521	  0.0000
     -1.1600	 15.9918	 15.9918	 -6.0521	  0.0000
     -1.1500	 16.0131	 16.0131	 -6.0521	  0.0000
     -1.1400	 16.0360	 16.0360	 -6.0521	  0.0000
     -1.1300	 16.0607	 16.0607	 -6.0521	  0.0000
     -1.1200	 16.0873	 16.0873	 -6.0521	  0.0000
     -1.1100	 16.1158	 16.1158	 -6.0521	  0.0000
     -1.1000	 16.1465	 16.1465	 -6.0521	  0.0000
     -1.0900	 16.1793	 16.1794	 -6.0521	  0.0000
     -1.0800	 16.2146	 16.2146	 -6.0521	  0.0000
     -1.0700	 16.2523	 16.2523	 -6.0521	  0.0000
     -1.0600	 16.2927	 16.2927	 -6.0521	  0.0000
     -1.0500	 16.3358	 16.3358	 -6.0521	  0.0000
     -1.0400	 16.3818	 16.3818	 -6.0521	  0.0000
     -1.0300	 16.4307	 16.4307	 -6.0521	  0.0000
     -1.0200	 16.4828	 16.4828	 -6.0521	  0.0000
     -1.0100	 16.5379	 16.5379	 -6.0521	  0.0000
     -1.0000	 16.5963	 16.5963	 -6.0521	  0.0000
     -0.9900	 16.6578	 16.6578	 -6.0521	  0.0000
     -0.9800	 16.7224	 16.7224	 -6.0521	  0.0000
     -0.9700	 16.7899	 16.7899	 -6.0521	  0.0000
     -0.9600	 16.8599	 16.8600	 -6.0521	  0.0000
     -0.9500	 16.9322	 16.9322	 -6.0521	  0.0000
     -0.9400	 17.0059	 17.0059	 -6.0521	  0.0000
     -0.9300	 17.0803	 17.0803	 -6.0521	  0.0000
     -0.9200	 17.1542	 17.1542	 -6.0521	  0.0000
     -0.9100	 17.2262	 17.2262	 -6.0521	  0.0000
     -0.9000	 17.2945	 17.2945	 -6.0521	  0.0000
     -0.8900	 17.3570	 17.3570	 -6.0521	  0.0000
     -0.8800	 17.4116	 17.4116	 -6.0521	  0.0000
     -0.8700	 17.4559	 17.4559	 -6.0521	  0.0000
     -0.8600	 17.4878	 17.4878	 -6.0521	  0.0000
     -0.8500	 17.5056	 17.5057	 -6.0521	  0.0000
     -0.8400	 17.5085	 17.5085	 -6.0521	  0.0000
     -0.8300	 17.4960	 17.4960	 -6.0521	  0.0000
     -0.8200	 17.4689	 17.4689	 -6.0521	  0.0000
     -0.8100	 17.4286	 17.4287	 -6.0521	  0.0000
     -0.8000	 17.3771	 17.3771	 -6.0521	  0.0000
     -0.7900	 17.3165	 17.3165	 -6.0521	  0.0000
     -0.7800	 17.2491	 17.2491	 -6.0521	  0.0000
     -0.7700	 17.1770	 17.1770	 -6.0521	  0.0000
     -0.7600	 17.1020	 17.1020	 -6.0521	  0.0000
     -0.7500	 17.0258	 17.0258	 -6.0521	  0.0000
     -0.7400	 16.9495	 16.9495	 -6.0521	  0.0000
     -0.7300	 16.8741	 16.8741	 -6.0521	  0.0000
     -0.7200	 16.8004	 16.8004	 -6.0521	  0.0000
     -0.7100	 16.7288	 16.7288	 -6.0521	  0.0000
     -0.7000	 16.6598	 16.6598	 -6.0521	  0.0000
     -0.6900	 16.5934	 16.5934	 -6.0521	  0.0000
     -0.6800	 16.5299	 16.5299	 -6.0521	  0.0000
     -0.6700	 16.4693	 16.4693	 -6.0521	  0.0000
     -0.6600	 16.4116	 16.4116	 -6.0521	  0.0000
     -0.6500	 16.3567	 16.3567	 -6.0521	  0.0000
     -0.6400	 16.3046	 16.3046	 -6.0521	  0.0000
     -0.6300	 16.2551	 16.2551	 -6.0521	  0.0000
     -0.6200	 16.2082	 16.2083	 -6.0521	  0.0000
     -0.6100	 16.1638	 16.1638	 -6.0521	  0.0000
     -0.6000	 16.1217	 16.1217	 -6.0521	  0.0000
     -0.5900	 16.0818	 16.0818	 -6.0521	  0.0000
     -0.5800	 16.0440	 16.0440	 -6.0521	  0.0000
     -0.5700	 16.0082	 16.0082	 -6.0521	  0.0000
     -0.5600	 15.9743	 15.9743	 -6.0521	  0.0000
     -0.5500	 15.9421	 15.9421	 -6.0521	  0.0000
     -0.5400	 15.9116	 15.9116	 -6.0521	  0.0000
     -0.5300	 15.8827	 15.8827	 -6.0521	  0.0000
     -0.5200	 15.8552	 15.8552	 -6.0521	  0.0000
     -0.5100	 15.8291	 15.8291	 -6.0521	  0.0000
     -0.5000	 15.8043	 15.8043	 -6.0521	  0.0000
     -0.4900	 15.7808	 15.7808	 -6.0521	  0.0000
     -0.4800	 15.7584	 15.7584	 -6.0521	  0.0000
     -0.4700	 15.7371	 15.7371	 -6.0521	  0.0000
     -0.4600	 15.7169	 15.7169	 -6.0521	  0.0000
     -0.4500	 15.6976	 15.6976	 -6.0521	  0.0000
     -0.4400	 15.6792	 15.6793	 -6.0521	  0.0000
     -0.4300	 15.6617	 15.6618	 -6.0521	  0.0000
     -0.4200	 15.6451	 15.6451	 -6.0521	  0.0000
     -0.4100	 15.6292	 15.6292	 -6.0521	  0.0000
     -0.4000	 15.6140	 15.6140	 -6.0521	  0.0000
     -0.3900	 15.5995	 15.5995	 -6.0521	  0.0000
     -0.3800	 15.5857	 15.5857	 -6.0521	  0.0000
     -0.3700	 15.5724	 15.5724	 -6.0521	  0.0000
     -0.3600	 15.5598	 15.5598	 -6.0521	  0.0000
     -0.3500	 15.5477	 15.5477	 -6.0521	  0.0000
     -0.3400	 15.5362	 15.5362	 -6.0521	  0.0000
     -0.3300	 15.5251	 15.5251	 -6.0521	  0.0000
     -0.3200	 15.5146	 15.5146	 -6.0521	  0.0000
     -0.3100	 15.5045	 15.5045	 -6.0521	  0.0000
     -0.3000	 15.4948	 15.4948	 -6.0521	  0.0000
     -0.2900	 15.4855	 15.4855	 -6.0521	  0.0000
     -0.2800	 15.4766	 15.4766	 -6.0521	  0.0000
     -0.2700	 15.4681	 15.4681	 -6.0521	  0.0000
     -0.2600	 15.4600	 15.4600	 -6.0521	  0.0000
     -0.2500	 15.4522	 15.4522	 -6.0521	  0.0000
     -0.2400	 15.4447	 15.4447	 -6.0521	  0.0000
     -0.2300	 15.4375	 15.4375	 -6.0521	  0.0000
     -0.2200	 15.4307	 15.4307	 -6.0521	  0.0000
     -0.2100	 15.4241	 15.4241	 -6.0521	  0.0000
     -0.2000	 15.4178	 15.4178	 -6.0521	  0.0000
     -0.1900	 15.4117	 15.4117	 -6.0521	  0.0000
     -0.1800	 15.4059	 15.4060	 -6.0521	  0.0000
     -0.1700	 15.4004	 15.4004	 -6.0521	  0.0000
     -0.1600	 15.3951	 15.3951	 -6.0521	  0.0000
     -0.1500	 15.3900	 15.3900	 -6.0521	  0.0000
     -0.1400	 15.3851	 15.3851	 -6.0521	  0.0000
     -0.1300	 15.3805	 15.3805	 -6.0521	  0.0000
     -0.1200	 15.3760	 15.3760	 -6.0521	  0.0000
     -0.1100	 15.3718	 15.3718	 -6.0521	  0.0000
     -0.1000	 15.3677	 15.3677	 -6.0521	  0.0000
     -0.0900	 15.3638	 15.3638	 -6.0521	  0.0000
     -0.0800	 15.3601	 15.3601	 -6.0521	  0.0000
     -0.0700	 15.3565	 15.3565	 -6.0521	  0.0000
     -0.0600	 15.3532	 15.3532	 -6.0521	  0.0000
     -0.0500	 15.3499	 15.3499	 -6.0521	  0.0000
     -0.0400	 15.3469	 15.3469	 -6.0521	  0.0000
     -0.0300	 15.3440	 15.3440	 -6.0521	  0.0000
     -0.0200	 15.3412	 15.3412	 -6.0521	  0.0000
     -0.0100	 15.3386	 15.3386	 -6.0521	  0.0000
      0.0000	 15.3361	 15.3361	 -6.0521	  0.0000
      0.0100	 15.3337	 15.3338	 -6.0521	  0.0000
      0.0200	 15.3315	 15.3315	 -6.0521	  0.0000
      0.0300	 15.3294	 15.3294	 -6.0521	  0.0000
      0.0400	 15.3275	 15.3275	 -6.0521	  0.0000
      0.0500	 15.3256	 15.3256	 -6.0521	  0.0000
      0.0600	 15.3239	 15.3239	 -6.0521	  0.0000
      0.0700	 15.3223	 15.3223	 -6.0521	  0.0000
      0.0800	 15.3208	 15.3208	 -6.0521	  0.0000
      0.0900	 15.3194	 15.3194	 -6.0521	  0.0000
      0.1000	 15.3182	 15.3182	 -6.0521	  0.0000
      0.1100	 15.3170	 15.3170	 -6.0521	  0.0000
      0.1200	 15.3159	 15.3159	 -6.0521	  0.0000
      0.1300	 15.3150	 15.3150	 -6.0521	  0.0000
      0.1400	 15.3141	 15.3141	 -6.0521	  0.0000
      0.1500	 15.3134	 15.3134	 -6.0521	  0.0000
      0.1600	 15.3127	 15.3127	 -6.0521	  0.0000
      0.1700	 15.3121	 15.3121	 -6.0521	  0.0000
      0.1800	 15.3117	 15.3117	 -6.0521	  0.0000
      0.1900	 15.3113	 15.3113	 -6.0521	  0.0000
      0.2000	 15.3110	 15.3110	 -6.0521	  0.0000
      0.2100	 15.3108	 15.3108	 -6.0521	  0.0000
      0.2200	 15.3107	 15.3107	 -6.0521	  0.0000
      0.2300	 15.3107	 15.3107	 -6.0521	  0.0000
      0.2400	 15.3107	 15.3107	 -6.0521	  0.0000
      0.2500	 15.3109	 15.3109	 -6.0521	  0.0000
      0.2600	 15.3111	 15.3111	 -6.0521	  0.0000
      0.2700	 15.3114	 15.3114	 -6.0521	  0.0000
      0.2800	 15.3118	 15.3118	 -6.0521	  0.0000
      0.2900	 15.3123	 15.3123	 -6.0521	  0.0000
      0.3000	 15.3129	 15.3129	 -6.0521	  0.0000
      0.3100	 15.3135	 15.3135	 -6.0521	  0.0000
      0.3200	 15.3142	 15.3142	 -6.0521	  0.0000
      0.3300	 15.3150	 15.3150	 -6.0521	  0.0000
      0.3400	 15.3159	 15.3159	 -6.0521	  0.0000
      0.3500	 15.3168	 15.3169	 -6.0521	  0.0000
      0.3600	 15.3179	 15.3179	 -6.0521	  0.0000
      0.3700	 15.3190	 15.3190	 -6.0521	  0.0000
      0.3800	 15.3202	 15.3202	 -6.0521	  0.0000
      0.3900	 15.3215	 15.3215	 -6.0521	  0.0000
      0.4000	 15.3228	 15.3228	 -6.0521	  0.0000
      0.4100	 15.3242	 15.3242	 -6.0521	  0.0000
      0.4200	 15.3257	 15.3257	 -6.0521	  0.0000
      0.4300	 15.3273	 15.3273	 -6.0521	  0.0000
      0.4400	 15.3289	 15.3289	 -6.0521	  0.0000
      0.4500	 15.3307	 15.3307	 -6.0521	  0.0000
      0.4600	 15.3325	 15.3325	 -6.0521	  0.0000
      0.4700	 15.3344	 15.3344	 -6.0521	  0.0000
      0.4800	 15.3364	 15.3364	 -6.0521	  0.0000
      0.4900	 15.3384	 15.3384	 -6.0521	  0.0000
      0.5000	 15.3405	 15.3405	 -6.0521	  0.0000
      0.5100	 15.3427	 15.3428	 -6.0521	  0.0000
      0.5200	 15.3451	 15.3451	 -6.0521	  0.0000
      0.5300	 15.3475	 15.3475	 -6.0521	  0.0000
      0.5400	 15.3499	 15.3499	 -6.0521	  0.0000
      0.5500	 15.3525	 15.3525	 -6.0521	  0.0000
      0.5600	 15.3552	 15.3552	 -6.0521	  0.0000
      0.5700	 15.3580	 15.3580	 -6.0521	  0.0000
      0.5800	 15.3608	 15.3608	 -6.0521	  0.0000
      0.5900	 15.3638	 15.3638	 -6.0521	  0.0000
      0.6000	 15.3669	 15.3669	 -6.0521	  0.0000
      0.6100	 15.3702	 15.3702	 -6.0521	  0.0000
      0.6200	 15.3735	 15.3735	 -6.0521	  0.0000
      0.6300	 15.3770	 15.3770	 -6.0521	  0.0000
      0.6400	 15.3806	 15.3806	 -6.0521	  0.0000
      0.6500	 15.3844	 15.3844	 -6.0521	  0.0000
      0.6600	 15.3883	 15.3884	 -6.0521	  0.0000
      0.6700	 15.3925	 15.3925	 -6.0521	  0.0000
      0.6800	 15.3968	 15.3968	 -6.0521	  0.0000
      0.6900	 15.4013	 15.4013	 -6.0521	  0.0000
      0.7000	 15.4061	 15.4061	 -6.0521	  0.0000
      0.7100	 15.4111	 15.4111	 -6.0521	  0.0000
      0.7200	 15.4163	 15.4163	 -6.0521	  0.0000
      0.7300	 15.4218	 15.4218	 -6.0521	  0.0000
      0.7400	 15.4275	 15.4275	 -6.0521	  0.0000
      0.7500	 15.4334	 15.4334	 -6.0521	  0.0000
      0.7600	 15.4396	 15.4396	 -6.0521	  0.0000
      0.7700	 15.4458	 15.4458	 -6.0521	  0.0000
      0.7800	 15.4522	 15.4522	 -6.0521	  0.0000
      0.7900	 15.4584	 15.4584	 -6.0521	  0.0000
      0.8000	 15.4644	 15.4644	 -6.0521	  0.0000
      0.8100	 15.4699	 15.4699	 -6.0521	  0.0000
      0.8200	 15.4750	 15.4750	 -6.0521	  0.0000
      0.8300	 15.4794	 15.4794	 -6.0521	  0.0000
      0.8400	 15.4830	 15.4830	 -6.0521	  0.0000
      0.8500	 15.4860	 15.4860	 -6.0521	  0.0000
      0.8600	 15.4883	 15.4883	 -6.0521	  0.0000
      0.8700	 15.4902	 15.4902	 -6.0521	  0.0000
      0.8800	 15.4919	 15.4919	 -6.0521	  0.0000
      0.8900	 15.4934	 15.4934	 -6.0521	  0.0000
      0.9000	 15.4949	 15.4949	 -6.0521	  0.0000
      0.9100	 15.4965	 15.4965	 -6.0521	  0.0000
      0.9200	 15.4984	 15.4984	 -6.0521	  0.0000
      0.9300	 15.5004	 15.5004	 -6.0521	  0.0000
      0.9400	 15.5028	 15.5028	 -6.0521	  0.0000
      0.9500	 15.5054	 15.5054	 -6.0521	  0.0000
      0.9600	 15.5082	 15.5082	 -6.0521	  0.0000
      0.9700	 15.5114	 15.5114	 -6.0521	  0.0000
      0.9800	 15.5147	 15.5147	 -6.0521	  0.0000
      0.9900	 15.5183	 15.5183	 -6.0521	  0.0000
      1.0000	 15.5221	 15.5221	 -6.0521	  0.0000
      1.0100	 15.5261	 15.5261	 -6.0521	  0.0000
      1.0200	 15.5302	 15.5302	 -6.0521	  0.0000
      1.0300	 15.5345	 15.5345	 -6.0521	  0.0000
      1.0400	 15.5390	 15.5390	 -6.0521	  0.0000
      1.0500	 15.5436	 15.5436	 -6.0521	  0.0000
      1.0600	 15.5484	 15.5484	 -6.0521	  0.0000
      1.0700	 15.5533	 15.5533	 -6.0521	  0.0000
      1.0800	 15.5583	 15.5583	 -6.0521	  0.0000
      1.0900	 15.5634	 15.5634	 -6.0521	  0.0000
      1.1000	 15.5686	 15.5686	 -6.0521	  0.0000
      1.1100	 15.5739	 15.5739	 -6.0521	  0.0000
      1.1200	 15.5793	 15.5793	 -6.0521	  0.0000
      1.1300	 15.5849	 15.5849	 -6.0521	  0.0000
      1.1400	 15.5905	 15.5905	 -6.0521	  0.0000
      1.1500	 15.5962	 15.5962	 -6.0521	  0.0000
      1.1600	 15.6020	 15.6020	 -6.0521	  0.0000
      1.1700	 15.6079	 15.6079	 -6.0521	  0.0000
      1.1800	 15.6139	 15.6139	 -6.0521	  0.0000
      1.1900	 15.6199	 15.6199	 -6.0521	  0.0000
      1.2000	 15.6261	 15.6261	 -6.0521	  0.0000
      1.2100	 15.6323	 15.6323	 -6.0521	  0.0000
      1.2200	 15.6386	 15.6386	 -6.0521	  0.0000
      1.2300	 15.6450	 15.6450	 -6.0521	  0.0000
      1.2400	 15.6515	 15.6515	 -6.0521	  0.0000
      1.2500	 15.6580	 15.6580	 -6.0521	  0.0000
      1.2600	 15.6647	 15.6647	 -6.0521	  0.0000
      1.2700	 15.6714	 15.6714	 -6.0521	  0.0000
      1.2800	 15.6782	 15.6782	 -6.0521	  0.0000
      1.2900	 15.6851	 15.6851	 -6.0521	  0.0000
      1.3000	 15.6920	 15.6920	 -6.0521	  0.0000
      1.3100	 15.6990	 15.6991	 -6.0521	  0.0000
      1.3200	 15.7062	 15.7062	 -6.0521	  0.0000
      1.3300	 15.7134	 15.7134	 -6.0521	  0.0000
      1.3400	 15.7206	 15.7206	 -6.0521	  0.0000
      1.3500	 15.7280	 15.7280	 -6.0521	  0.0000
      1.3600	 15.7354	 15.7354	 -6.0521	  0.0000
      1.3700	 15.7430	 15.7430	 -6.0521	  0.0000
      1.3800	 15.7506	 15.7506	 -6.0521	  0.0000
      1.3900	 15.7582	 15.7583	 -6.0521	  0.0000
      1.4000	 15.7660	 15.7660	 -6.0521	  0.0000
      1.4100	 15.7739	 15.7739	 -6.0521	  0.0000
      1.4200	 15.7818	 15.7818	 -6.0521	  0.0000
      1.4300	 15.7898	 15.7898	 -6.0521	  0.0000
      1.4400	 15.7979	 15.7979	 -6.0521	  0.0000
      1.4500	 15.8061	 15.8061	 -6.0521	  0.0000
      1.4600	 15.8144	 15.8144	 -6.0521	  0.0000
      1.4700	 15.8227	 15.8227	 -6.0521	  0.0000
      1.4800	 15.8312	 15.8312	 -6.0521	  0.0000
      1.4900	 15.8397	 15.8397	 -6.0521	  0.0000
      1.5000	 15.8483	 15.8483	 -6.0521	  0.0000
      1.5100	 15.8570	 15.8570	 -6.0521	  0.0000
      1.5200	 15.8658	 15.8658	 -6.0521	  0.0000
      1.5300	 15.8747	 15.8747	 -6.0521	  0.0000
      1.5400	 15.8836	 15.8836	 -6.0521	  0.0000
      1.5500	 15.8927	 15.8927	 -6.0521	  0.0000
      1.5600	 15.9018	 15.9018	 -6.0521	  0.0000
      1.5700	 15.9111	 15.9111	 -6.0521	  0.0000
      1.5800	 15.9204	 15.9204	 -6.0521	  0.0000
      1.5900	 15.9298	 15.9299	 -6.0521	  0.0000
      1.6000	 15.9394	 15.9394	 -6.0521	  0.0000
      1.6100	 15.9490	 15.9490	 -6.0521	  0.0000
      1.6200	 15.9587	 15.9587	 -6.0521	  0.0000
      1.6300	 15.9685	 15.9685	 -6.0521	  0.0000
      1.6400	 15.9784	 15.9784	 -6.0521	  0.0000
      1.6500	 15.9884	 15.9884	 -6.0521	  0.0000
      1.6600	 15.9986	 15.9986	 -6.0521	  0.0000
      1.6700	 16.0088	 16.0088	 -6.0521	  0.0000
      1.6800	 16.0191	 16.0191	 -6.0521	  0.0000
      1.6900	 16.0295	 16.0295	 -6.0521	  0.0000
      1.7000	 16.0400	 16.0400	 -6.0521	  0.0000
      1.7100	 16.0506	 16.0506	 -6.0521	  0.0000
      1.7200	 16.0613	 16.0613	 -6.0521	  0.0000
      1.7300	 16.0722	 16.0722	 -6.0521	  0.0000
      1.7400	 16.0831	 16.0831	 -6.0521	  0.0000
      1.7500	 16.0942	 16.0942	 -6.0521	  0.0000
      1.7600	 16.1053	 16.1053	 -6.0521	  0.0000
      1.7700	 16.1166	 16.1166	 -6.0521	  0.0000
      1.7800	 16.1280	 16.1280	 -6.0521	  0.0000
      1.7900	 16.1395	 16.1395	 -6.0521	  0.0000
      1.8000	 16.1511	 16.1511	 -6.0521	  0.0000
      1.8100	 16.1628	 16.1628	 -6.0521	  0.0000
      1.8200	 16.1746	 16.1746	 -6.0521	  0.0000
      1.8300	 16.1866	 16.1866	 -6.0521	  0.0000
      1.8400	 16.1987	 16.1987	 -6.0521	  0.0000
      1.8500	 16.2108	 16.2109	 -6.0521	  0.0000
      1.8600	 16.2232	 16.2232	 -6.0521	  0.0000
      1.8700	 16.2356	 16.2356	 -6.0521	  0.0000
      1.8800	 16.2482	 16.2482	 -6.0521	  0.0000
      1.8900	 16.2609	 16.2609	 -6.0521	  0.0000
      1.9000	 16.2737	 16.2737	 -6.0521	  0.0000
      1.9100	 16.2866	 16.2866	 -6.0521	  0.0000
      1.9200	 16.2997	 16.2997	 -6.0521	  0.0000
      1.9300	 16.3129	 16.3129	 -6.0521	  0.0000
      1.9400	 16.3263	 16.3263	 -6.0521	  0.0000
      1.9500	 16.3397	 16.3397	 -6.0521	  0.0000
      1.9600	 16.3534	 16.3534	 -6.0521	  0.0000
      1.9700	 16.3671	 16.3671	 -6.0521	  0.0000
      1.9800	 16.3810	 16.3810	 -6.0521	  0.0000
      1.9900	 16.3950	 16.3950	 -6.0521	  0.0000
      2.0000	 16.4092	 16.4092	 -6.0521	  0.0000
      2.0100	 16.4235	 16.4235	 -6.0521	  0.0000
      2.0200	 16.4380	 16.4380	 -6.0521	  0.0000
      2.0300	 16.4526	 16.4526	 -6.0521	  0.0000
      2.0400	 16.4674	 16.4674	 -6.0521	  0.0000
      2.0500	 16.4823	 16.4823	 -6.0521	  0.0000
      2.0600	 16.4974	 16.4974	 -6.0521	  0.0000
      2.0700	 16.5126	 16.5126	 -6.0521	  0.0000
      2.0800	 16.5280	 16.5280	 -6.0521	  0.0000
      2.0900	 16.5436	 16.5436	 -6.0521	  0.0000
      2.1000	 16.5593	 16.5593	 -6.0521	  0.0000
      2.1100	 16.5751	 16.5752	 -6.0521	  0.0000
      2.1200	 16.5912	 16.5912	 -6.0521	  0.0000
      2.1300	 16.6074	 16.6074	 -6.0521	  0.0000
      2.1400	 16.6238	 16.6238	 -6.0521	  0.0000
      2.1500	 16.6403	 16.6404	 -6.0521	  0.0000
      2.1600	 16.6571	 16.6571	 -6.0521	  0.0000
      2.1700	 16.6740	 16.6740	 -6.0521	  0.0000
      2.1800	 16.6911	 16.6911	 -6.0521	  0.0000
      2.1900	 16.7083	 16.7083	 -6.0521	  0.0000
      2.2000	 16.7258	 16.7258	 -6.0521	  0.0000
      2.2100	 16.7434	 16.7434	 -6.0521	  0.0000
      2.2200	 16.7613	 16.7613	 -6.0521	  0.0000
      2.2300	 16.7793	 16.7793	 -6.0521	  0.0000
      2.2400	 16.7975	 16.7975	 -6.0521	  0.0000
      2.2500	 16.8159	 16.8159	 -6.0521	  0.0000
      2.2600	 16.8346	 16.8346	 -6.0521	  0.0000
      2.2700	 16.8534	 16.8534	 -6.0521	  0.0000
      2.2800	 16.8724	 16.8724	 -6.0521	  0.0000
      2.2900	 16.8916	 16.8916	 -6.0521	  0.0000
      2.3000	 16.9111	 16.9111	 -6.0521	  0.0000
      2.3100	 16.9307	 16.9307	 -6.0521	  0.0000
      2.3200	 16.9506	 16.9506	 -6.0521	  0.0000
      2.3300	 16.9707	 16.9707	 -6.0521	  0.0000
      2.3400	 16.9910	 16.9910	 -6.0521	  0.0000
      2.3500	 17.0115	 17.0115	 -6.0521	  0.0000
      2.3600	 17.0323	 17.0323	 -6.0521	  0.0000
      2.3700	 17.0533	 17.0533	 -6.0521	  0.0000
      2.3800	 17.0745	 17.0745	 -6.0521	  0.0000
      2.3900	 17.0960	 17.0960	 -6.0521	  0.0000
      2.4000	 17.1177	 17.1177	 -6.0521	  0.0000
      2.4100	 17.1396	 17.1396	 -6.0521	  0.0000
      2.4200	 17.1618	 17.1618	 -6.0521	  0.0000
      2.4300	 17.1842	 17.1842	 -6.0521	  0.0000
      2.4400	 17.2069	 17.2069	 -6.0521	  0.0000
      2.4500	 17.2298	 17.2298	 -6.0521	  0.0000
      2.4600	 17.2530	 17.2530	 -6.0521	  0.0000
      2.4700	 17.2764	 17.2764	 -6.0521	  0.0000
      2.4800	 17.3001	 17.3001	 -6.0521	  0.0000
      2.4900	 17.3241	 17.3241	 -6.0521	  0.0000
      2.5000	 17.3483	 17.3483	 -6.0521	  0.0000
      2.5100	 17.3728	 17.3728	 -6.0521	  0.0000
      2.5200	 17.3976	 17.3976	 -6.0521	  0.0000
      2.5300	 17.4226	 17.4226	 -6.0521	  0.0000
      2.5400	 17.4478	 17.4479	 -6.0521	  0.0000
      2.5500	 17.4734	 17.4734	 -6.0521	  0.0000
      2.5600	 17.4992	 17.4992	 -6.0521	  0.0000
      2.5700	 17.5253	 17.5253	 -6.0521	  0.0000
      2.5800	 17.5517	 17.5517	 -6.0521	  0.0000
      2.5900	 17.5784	 17.5784	 -6.0521	  0.0000
      2.6000	 17.6053	 17.6053	 -6.0521	  0.0000
      2.6100	 17.6324	 17.6324	 -6.0521	  0.0000
      2.6200	 17.6599	 17.6599	 -6.0521	  0.0000
      2.6300	 17.6876	 17.6876	 -6.0521	  0.0000
      2.6400	 17.7156	 17.7156	 -6.0521	  0.0000
      2.6500	 17.7438	 17.7438	 -6.0521	  0.0000
      2.6600	 17.7723	 17.7723	 -6.0521	  0.0000
      2.6700	 17.8010	 17.8010	 -6.0521	  0.0000
      2.6800	 17.8300	 17.8300	 -6.0521	  0.0000
      2.6900	 17.8591	 17.8592	 -6.0521	  0.0000
      2.7000	 17.8886	 17.8886	 -6.0521	  0.0000
      2.7100	 17.9182	 17.9182	 -6.0521	  0.0000
      2.7200	 17.9480	 17.9480	 -6.0521	  0.0000
      2.7300	 17.9780	 17.9780	 -6.0521	  0.0000
      2.7400	 18.0082	 18.0082	 -6.0521	  0.0000
      2.7500	 18.0385	 18.0386	 -6.0521	  0.0000
      2.7600	 18.0690	 18.0690	 -6.0521	  0.0000
      2.7700	 18.0996	 18.0996	 -6.0521	  0.0000
      2.7800	 18.1303	 18.1303	 -6.0521	  0.0000
      2.7900	 18.1610	 18.1610	 -6.0521	  0.0000
      2.8000	 18.1918	 18.1918	 -6.0521	  0.0000
      2.8100	 18.2225	 18.2226	 -6.0521	  0.0000
      2.8200	 18.2533	 18.2533	 -6.0521	  0.0000
      2.8300	 18.2840	 18.2840	 -6.0521	  0.0000
      2.8400	 18.3145	 18.3145	 -6.0521	  0.0000
      2.8500	 18.3449	 18.3449	 -6.0521	  0.0000
      2.8600	 18.3751	 18.3751	 -6.0521	  0.0000
      2.8700	 18.4050	 18.4050	 -6.0521	  0.0000
      2.8800	 18.4345	 18.4346	 -6.0521	  0.0000
      2.8900	 18.4638	 18.4638	 -6.0521	  0.0000
      2.9000	 18.4925	 18.4925	 -6.0521	  0.0000
      2.9100	 18.5207	 18.5207	 -6.0521	  0.0000
      2.9200	 18.5483	 18.5484	 -6.0521	  0.0000
      2.9300	 18.5753	 18.5753	 -6.0521	  0.0000
      2.9400	 18.6015	 18.6015	 -6.0521	  0.0000
      2.9500	 18.6269	 18.6269	 -6.0521	  0.0000
      2.9600	 18.6513	 18.6513	 -6.0521	  0.0000
      2.9700	 18.6747	 18.6747	 -6.0521	  0.0000
      2.9800	 18.6970	 18.6970	 -6.0521	  0.0000
      2.9900	 18.7181	 18.7181	 -6.0521	  0.0000
      3.0000	 18.7378	 18.7379	 -6.0521	  0.0000
      3.0100	 18.7562	 18.7562	 -6.0521	  0.0000
      3.0200	 18.7731	 18.7732	 -6.0521	  0.0000
      3.0300	 18.7885	 18.7885	 -6.0521	  0.0000
      3.0400	 18.8022	 18.8022	 -6.0521	  0.0000
      3.0500	 18.8142	 18.8142	 -6.0521	  0.0000
      3.0600	 18.8244	 18.8244	 -6.0521	  0.0000
      3.0700	 18.8327	 18.8327	 -6.0521	  0.0000
      3.0800	 18.8392	 18.8392	 -6.0521	  0.0000
      3.0900	 18.8437	 18.8437	 -6.0521	  0.0000
      3.1000	 18.8463	 18.8463	 -6.0521	  0.0000
      3.1100	 18.8468	 18.8468	 -6.0521	  0.0000
      3.1200	 18.8454	 18.8454	 -6.0521	  0.0000
      3.1300	 18.8420	 18.8420	 -6.0521	  0.0000
      3.1400	 18.8366	 18.8366	 -6.0521	  0.0000
      3.1500	 18.8293	 18.8294	 -6.0521	  0.0000
      3.1600	 18.8202	 18.8202	 -6.0521	  0.0000
      3.1700	 18.8092	 18.8092	 -6.0521	  0.0000
      3.1800	 18.7964	 18.7964	 -6.0521	  0.0000
      3.1900	 18.7819	 18.7819	 -6.0521	  0.0000
      3.2000	 18.7658	 18.7658	 -6.0521	  0.0000
      3.2100	 18.7481	 18.7481	 -6.0521	  0.0000
      3.2200	 18.7290	 18.7290	 -6.0521	  0.0000
      3.2300	 18.7085	 18.7085	 -6.0521	  0.0000
      3.2400	 18.6868	 18.6868	 -6.0521	  0.0000
      3.2500	 18.6638	 18.6638	 -6.0521	  0.0000
      3.2600	 18.6398	 18.6398	 -6.0521	  0.0000
      3.2700	 18.6147	 18.6148	 -6.0521	  0.0000
      3.2800	 18.5888	 18.5888	 -6.0521	  0.0000
      3.2900	 18.5620	 18.5621	 -6.0521	  0.0000
      3.3000	 18.5345	 18.5346	 -6.0521	  0.0000
      3.3100	 18.5064	 18.5064	 -6.0521	  0.0000
      3.3200	 18.4777	 18.4777	 -6.0521	  0.0000
      3.3300	 18.4485	 18.4485	 -6.0521	  0.0000
      3.3400	 18.4188	 18.4188	 -6.0521	  0.0000
      3.3500	 18.3888	 18.3888	 -6.0521	  0.0000
      3.3600	 18.3585	 18.3585	 -6.0521	  0.0000
      3.3700	 18.3279	 18.3279	 -6.0521	  0.0000
      3.3800	 18.2971	 18.2972	 -6.0521	  0.0000
      3.3900	 18.2663	 18.2663	 -6.0521	  0.0000
      3.4000	 18.2353	 18.2353	 -6.0521	  0.0000
      3.4100	 18.2042	 18.2042	 -6.0521	  0.0000
      3.4200	 18.1731	 18.1732	 -6.0521	  0.0000
      3.4300	 18.1421	 18.1421	 -6.0521	  0.0000
      3.4400	 18.1111	 18.1111	 -6.0521	  0.0000
      3.4500	 18.0802	 18.0802	 -6.0521	  0.0000
      3.4600	 18.0494	 18.0494	 -6.0521	  0.0000
      3.4700	 18.0187	 18.0187	 -6.0521	  0.0000
      3.4800	 17.9882	 17.9882	 -6.0521	  0.0000
      3.4900	 17.9578	 17.9578	 -6.0521	  0.0000
      3.5000	 17.9277	 17.9277	 -6.0521	  0.0000
      3.5100	 17.8977	 17.8977	 -6.0521	  0.0000
      3.5200	 17.8679	 17.8679	 -6.0521	  0.0000
      3.5300	 17.8384	 17.8384	 -6.0521	  0.0000
      3.5400	 17.8092	 17.8092	 -6.0521	  0.0000
      3.5500	 17.7801	 17.7801	 -6.0521	  0.0000
      3.5600	 17.7514	 17.7514	 -6.0521	  0.0000
      3.5700	 17.7229	 17.7229	 -6.0521	  0.0000
      3.5800	 17.6946	 17.6946	 -6.0521	  0.0000
      3.5900	 17.6667	 17.6667	 -6.0521	  0.0000
      3.6000	 17.6390	 17.6390	 -6.0521	  0.0000
      3.6100	 17.6116	 17.6116	 -6.0521	  0.0000
      3.6200	 17.5845	 17.5845	 -6.0521	  0.0000
      3.6300	 17.5577	 17.5577	 -6.0521	  0.0000
      3.6400	 17.5311	 17.5311	 -6.0521	  0.0000
      3.6500	 17.5049	 17.5049	 -6.0521	  0.0000
      3.6600	 17.4790	 17.4790	 -6.0521	  0.0000
      3.6700	 17.4533	 17.4533	 -6.0521	  0.0000
      3.6800	 17.4279	 17.4280	 -6.0521	  0.0000
      3.6900	 17.4029	 17.4029	 -6.0521	  0.0000
      3.7000	 17.3781	 17.3781	 -6.0521	  0.0000
      3.7100	 17.3536	 17.3537	 -6.0521	  0.0000
      3.7200	 17.3295	 17.3295	 -6.0521	  0.0000
      3.7300	 17.3056	 17.3056	 -6.0521	  0.0000
      3.7400	 17.2820	 17.2820	 -6.0521	  0.0000
      3.7500	 17.2586	 17.2587	 -6.0521	  0.0000
      3.7600	 17.2356	 17.2356	 -6.0521	  0.0000
      3.7700	 17.2129	 17.2129	 -6.0521	  0.0000
      3.7800	 17.1904	 17.1904	 -6.0521	  0.0000
      3.7900	 17.1682	 17.1682	 -6.0521	  0.0000
      3.8000	 17.1463	 17.1463	 -6.0521	  0.0000
      3.8100	 17.1247	 17.1247	 -6.0521	  0.0000
      3.8200	 17.1033	 17.1034	 -6.0521	  0.0000
      3.8300	 17.0823	 17.0823	 -6.0521	  0.0000
      3.8400	 17.0615	 17.0615	 -6.0521	  0.0000
      3.8500	 17.0409	 17.0409	 -6.0521	  0.0000
      3.8600	 17.0207	 17.0207	 -6.0521	  0.0000
      3.8700	 17.0007	 17.0007	 -6.0521	  0.0000
      3.8800	 16.9809	 16.9809	 -6.0521	  0.0000
      3.8900	 16.9615	 16.9615	 -6.0521	  0.0000
      3.9000	 16.9422	 16.9422	 -6.0521	  0.0000
      3.9100	 16.9233	 16.9233	 -6.0521	  0.0000
      3.9200	 16.9046	 16.9046	 -6.0521	  0.0000
      3.9300	 16.8861	 16.8861	 -6.0521	  0.0000
      3.9400	 16.8679	 16.8679	 -6.0521	  0.0000
      3.9500	 16.8500	 16.8500	 -6.0521	  0.0000
      3.9600	 16.8323	 16.8323	 -6.0521	  0.0000
      3.9700	 16.8149	 16.8149	 -6.0521	  0.0000
      3.9800	 16.7977	 16.7977	 -6.0521	  0.0000
      3.9900	 16.7807	 16.7807	 -6.0521	  0.0000
      4.0000	 16.7640	 16.7640	 -6.0521	  0.0000
      4.0100	 16.7476	 16.7476	 -6.0521	  0.0000
      4.0200	 16.7313	 16.7314	 -6.0521	  0.0000
      4.0300	 16.7154	 16.7154	 -6.0521	  0.0000
      4.0400	 16.6996	 16.6996	 -6.0521	  0.0000
      4.0500	 16.6841	 16.6842	 -6.0521	  0.0000
      4.0600	 16.6689	 16.6689	 -6.0521	  0.0000
      4.0700	 16.6539	 16.6539	 -6.0521	  0.0000
      4.0800	 16.6391	 16.6391	 -6.0521	  0.0000
      4.0900	 16.6245	 16.6246	 -6.0521	  0.0000
      4.1000	 16.6103	 16.6103	 -6.0521	  0.0000
      4.1100	 16.5962	 16.5962	 -6.0521	  0.0000
      4.1200	 16.5823	 16.5824	 -6.0521	  0.0000
      4.1300	 16.5688	 16.5688	 -6.0521	  0.0000
      4.1400	 16.5554	 16.5554	 -6.0521	  0.0000
      4.1500	 16.5423	 16.5423	 -6.0521	  0.0000
      4.1600	 16.5294	 16.5294	 -6.0521	  0.0000
      4.1700	 16.5168	 16.5168	 -6.0521	  0.0000
      4.1800	 16.5044	 16.5044	 -6.0521	  0.0000
      4.1900	 16.4922	 16.4922	 -6.0521	  0.0000
      4.2000	 16.4803	 16.4803	 -6.0521	  0.0000
      4.2100	 16.4686	 16.4686	 -6.0521	  0.0000
      4.2200	 16.4572	 16.4572	 -6.0521	  0.0000
      4.2300	 16.4460	 16.4460	 -6.0521	  0.0000
      4.2400	 16.4351	 16.4351	 -6.0521	  0.0000
      4.2500	 16.4244	 16.4244	 -6.0521	  0.0000
      4.2600	 16.4140	 16.4140	 -6.0521	  0.0000
      4.2700	 16.4039	 16.4039	 -6.0521	  0.0000
      4.2800	 16.3940	 16.3940	 -6.0521	  0.0000
      4.2900	 16.3843	 16.3843	 -6.0521	  0.0000
      4.3000	 16.3750	 16.3750	 -6.0521	  0.0000
      4.3100	 16.3659	 16.3659	 -6.0521	  0.0000
      4.3200	 16.3571	 16.3571	 -6.0521	  0.0000
      4.3300	 16.3485	 16.3485	 -6.0521	  0.0000
      4.3400	 16.3403	 16.3403	 -6.0521	  0.0000
      4.3500	 16.3323	 16.3323	 -6.0521	  0.0000
      4.3600	 16.3247	 16.3247	 -6.0521	  0.0000
      4.3700	 16.3174	 16.3174	 -6.0521	  0.0000
      4.3800	 16.3103	 16.3103	 -6.0521	  0.0000
      4.3900	 16.3036	 16.3036	 -6.0521	  0.0000
      4.4000	 16.2973	 16.2973	 -6.0521	  0.0000
      4.4100	 16.2913	 16.2913	 -6.0521	  0.0000
      4.4200	 16.2856	 16.2856	 -6.0521	  0.0000
      4.4300	 16.2803	 16.2803	 -6.0521	  0.0000
      4.4400	 16.2754	 16.2754	 -6.0521	  0.0000
      4.4500	 16.2709	 16.2709	 -6.0521	  0.0000
      4.4600	 16.2668	 16.2668	 -6.0521	  0.0000
      4.4700	 16.2631	 16.2631	 -6.0521	  0.0000
      4.4800	 16.2599	 16.2599	 -6.0521	  0.0000
      4.4900	 16.2571	 16.2571	 -6.0521	  0.0000
      4.5000	 16.2548	 16.2548	 -6.0521	  0.0000
      4.5100	 16.2531	 16.2530	 -6.0521	  0.0000
      4.5200	 16.2518	 16.2518	 -6.0521	  0.0000
      4.5300	 16.2512	 16.2512	 -6.0521	  0.0000
      4.5400	 16.2511	 16.2511	 -6.0521	  0.0000
      4.5500	 16.2516	 16.2516	 -6.0521	  0.0000
      4.5600	 16.2529	 16.2529	 -6.0521	  0.0000
      4.5700	 16.2548	 16.2548	 -6.0521	  0.0000
      4.5800	 16.2575	 16.2575	 -6.0521	  0.0000
      4.5900	 16.2610	 16.2610	 -6.0521	  0.0000
      4.6000	 16.2653	 16.2653	 -6.0521	  0.0000
      4.6100	 16.2706	 16.2706	 -6.0521	  0.0000
      4.6200	 16.2768	 16.2768	 -6.0521	  0.0000
      4.6300	 16.2841	 16.2841	 -6.0521	  0.0000
      4.6400	 16.2926	 16.2926	 -6.0521	  0.0000
      4.6500	 16.3023	 16.3022	 -6.0521	  0.0000
      4.6600	 16.3133	 16.3133	 -6.0521	  0.0000
      4.6700	 16.3257	 16.3257	 -6.0521	  0.0000
      4.6800	 16.3397	 16.3397	 -6.0521	  0.0000
      4.6900	 16.3555	 16.3554	 -6.0521	  0.0000
      4.7000	 16.3730	 16.3730	 -6.0521	  0.0000
      4.7100	 16.3927	 16.3926	 -6.0521	  0.0000
      4.7200	 16.4145	 16.4145	 -6.0521	  0.0000
      4.7300	 16.4389	 16.4388	 -6.0521	  0.0000
      4.7400	 16.4659	 16.4659	 -6.0521	  0.0000
      4.7500	 16.4959	 16.4959	 -6.0521	  0.0000
      4.7600	 16.5292	 16.5292	 -6.0521	  0.0000
      4.7700	 16.5662	 16.5662	 -6.0521	  0.0000
      4.7800	 16.6073	 16.6073	 -6.0521	  0.0000
      4.7900	 16.6530	 16.6530	 -6.0521	  0.0000
      4.8000	 16.7038	 16.7038	 -6.0521	  0.0000
      4.8100	 16.7603	 16.7603	 -6.0520	  0.0000
      4.8200	 16.8233	 16.8233	 -6.0520	  0.0000
      4.8300	 16.8937	 16.8936	 -6.0520	  0.0000
      4.8400	 16.9723	 16.9722	 -6.0520	  0.0000
      4.8500	 17.0604	 17.0604	 -6.0520	  0.0000
      4.8600	 17.1595	 17.1594	 -6.0520	  0.0000
      4.8700	 17.2712	 17.2711	 -6.0520	  0.0000
      4.8800	 17.3975	 17.3975	 -6.0520	  0.0000
      4.8900	 17.5412	 17.5412	 -6.0520	  0.0000
      4.9000	 17.7056	 17.7055	 -6.0520	  0.0000
      4.9100	 17.8950	 17.8949	 -6.0520	  0.0000
      4.9200	 18.1154	 18.1153	 -6.0520	  0.0000
      4.9300	 18.3752	 18.3752	 -6.0520	  0.0000
      4.9400	 18.6871	 18.6871	 -6.0520	  0.0000
      4.9500	 19.0715	 19.0714	 -6.0520	  0.0000
      4.9600	 19.5645	 19.5644	 -6.0520	  0.0000
      4.9700	 20.2424	 20.2424	 -6.0520	  0.0000
      4.9800	 21.3220	 21.3219	 -6.0520	  0.0000
      4.9900	 24.2083	 24.2083	 -6.0520	  0.0000
      5.0000	 24.2079	 24.2081	 -6.0522	  0.0000
