
  1   1001     1.54056     0.00000     0.00000     0.00000     0.00000    0
     0     0     0
 2Theta	Yobs	Ycal	Yobs-Ycal	Backg	Posr	(hkl)	K
     -5.0000	 29.8685	 29.8686	 -7.4672	  0.0000
     -4.9900	 26.9794	 26.9794	 -7.4671	  0.0000
     -4.9800	 25.8936	 25.8936	 -7.4671	  0.0000
     -4.9700	 25.2062	 25.2062	 -7.4671	  0.0000
     -4.9600	 24.7007	 24.7006	 -7.4671	  0.0000
     -4.9500	 24.3009	 24.3009	 -7.4671	  0.0000
     -4.9400	 23.9709	 23.9708	 -7.4671	  0.0000
     -4.9300	 23.6904	 23.6903	 -7.4671	  0.0000
     -4.9200	 23.4471	 23.4470	 -7.4671	  0.0000
     -4.9100	 23.2328	 23.2327	 -7.4671	  0.0000
     -4.9000	 23.0418	 23.0417	 -7.4671	  0.0000
     -4.8900	 22.8699	 22.8698	 -7.4671	  0.0000
     -4.8800	 22.7141	 22.7140	 -7.4671	  0.0000
     -4.8700	 22.5720	 22.5719	 -7.4671	  0.0000
     -4.8600	 22.4416	 22.4416	 -7.4671	  0.0000
     -4.8500	 22.3216	 22.3215	 -7.4671	  0.0000
     -4.8400	 22.2106	 22.2106	 -7.4671	  0.0000
     -4.8300	 22.1078	 22.1077	 -7.4671	  0.0000
     -4.8200	 22.0122	 22.0121	 -7.4671	  0.0000
     -4.8100	 21.9231	 21.9230	 -7.4671	  0.0000
     -4.8000	 21.8399	 21.8398	 -7.4671	  0.0000
     -4.7900	 21.7620	 21.7620	 -7.4671	  0.0000
     -4.7800	 21.6891	 21.6891	 -7.4671	  0.0000
     -4.7700	 21.6208	 21.6207	 -7.4671	  0.0000
     -4.7600	 21.5566	 21.5566	 -7.4671	  0.0000
     -4.7500	 21.4963	 21.4962	 -7.4671	  0.0000
     -4.7400	 21.4396	 21.4395	 -7.4671	  0.0000
     -4.7300	 21.3862	 21.3861	 -7.4671	  0.0000
     -4.7200	 21.3359	 21.3358	 -7.4671	  0.0000
     -4.7100	 21.2885	 21.2885	 -7.4671	  0.0000
     -4.7000	 21.2439	 21.2438	 -7.4671	  0.0000
     -4.6900	 21.2018	 21.2017	 -7.4671	  0.0000
     -4.6800	 21.1621	 21.1620	 -7.4671	  0.0000
     -4.6700	 21.1247	 21.1246	 -7.4671	  0.0000
     -4.6600	 21.0894	 21.0893	 -7.4671	  0.0000
     -4.6500	 21.0561	 21.0561	 -7.4671	  0.0000
     -4.6400	 21.0248	 21.0247	 -7.4671	  0.0000
     -4.6300	 20.9952	 20.9952	 -7.4671	  0.0000
     -4.6200	 20.9674	 20.9674	 -7.4671	  0.0000
     -4.6100	 20.9412	 20.9412	 -7.4671	  0.0000
     -4.6000	 20.9166	 20.9165	 -7.4671	  0.0000
     -4.5900	 20.8934	 20.8934	 -7.4671	  0.0000
     -4.5800	 20.8717	 20.8716	 -7.4671	  0.0000
     -4.5700	 20.8512	 20.8512	 -7.4671	  0.0000
     -4.5600	 20.8321	 20.8321	 -7.4671	  0.0000
     -4.5500	 20.8141	 20.8141	 -7.4671	  0.0000
     -4.5400	 20.7974	 20.7974	 -7.4671	  0.0000
     -4.5300	 20.7818	 20.7817	 -7.4671	  0.0000
     -4.5200	 20.7672	 20.7672	 -7.4671	  0.0000
     -4.5100	 20.7537	 20.7536	 -7.4671	  0.0000
     -4.5000	 20.7411	 20.7411	 -7.4671	  0.0000
     -4.4900	 20.7295	 20.7295	 -7.4671	  0.0000
     -4.4800	 20.7188	 20.7188	 -7.4671	  0.0000
     -4.4700	 20.7090	 20.7089	 -7.4671	  0.0000
     -4.4600	 20.7000	 20.7000	 -7.4671	  0.0000
     -4.4500	 20.6918	 20.6918	 -7.4671	  0.0000
     -4.4400	 20.6844	 20.6844	 -7.4671	  0.0000
     -4.4300	 20.6778	 20.6778	 -7.4671	  0.0000
     -4.4200	 20.6719	 20.6719	 -7.4671	  0.0000
     -4.4100	 20.6667	 20.6667	 -7.4671	  0.0000
     -4.4000	 20.6622	 20.6622	 -7.4671	  0.0000
     -4.3900	 20.6584	 20.6584	 -7.4671	  0.0000
     -4.3800	 20.6552	 20.6552	 -7.4671	  0.0000
     -4.3700	 20.6526	 20.6526	 -7.4671	  0.0000
     -4.3600	 20.6506	 20.6506	 -7.4671	  0.0000
     -4.3500	 20.6493	 20.6492	 -7.4671	  0.0000
     -4.3400	 20.6484	 20.6484	 -7.4671	  0.0000
     -4.3300	 20.6482	 20.6482	 -7.4671	  0.0000
     -4.3200	 20.6485	 20.6484	 -7.4671	  0.0000
     -4.3100	 20.6493	 20.6493	 -7.4671	  0.0000
     -4.3000	 20.6506	 20.6506	 -7.4671	  0.0000
     -4.2900	 20.6524	 20.6524	 -7.4671	  0.0000
     -4.2800	 20.6547	 20.6547	 -7.4671	  0.0000
     -4.2700	 20.6575	 20.6575	 -7.4671	  0.0000
     -4.2600	 20.6608	 20.6608	 -7.4671	  0.0000
     -4.2500	 20.6645	 20.6645	 -7.4671	  0.0000
     -4.2400	 20.6687	 20.6687	 -7.4671	  0.0000
     -4.2300	 20.6733	 20.6733	 -7.4671	  0.0000
     -4.2200	 20.6784	 20.6783	 -7.4671	  0.0000
     -4.2100	 20.6838	 20.6838	 -7.4671	  0.0000
     -4.2000	 20.6897	 20.6897	 -7.4671	  0.0000
     -4.1900	 20.6960	 20.6960	 -7.4671	  0.0000
     -4.1800	 20.7027	 20.7027	 -7.4671	  0.0000
     -4.1700	 20.7098	 20.7098	 -7.4671	  0.0000
     -4.1600	 20.7173	 20.7173	 -7.4671	  0.0000
     -4.1500	 20.7252	 20.7252	 -7.4671	  0.0000
     -4.1400	 20.7335	 20.7335	 -7.4671	  0.0000
     -4.1300	 20.7422	 20.7422	 -7.4671	  0.0000
     -4.1200	 20.7512	 20.7512	 -7.4671	  0.0000
     -4.1100	 20.7606	 20.7606	 -7.4671	  0.0000
     -4.1000	 20.7703	 20.7703	 -7.4671	  0.0000
     -4.0900	 20.7805	 20.7804	 -7.4671	  0.0000
     -4.0800	 20.7909	 20.7909	 -7.4671	  0.0000
     -4.0700	 20.8018	 20.8018	 -7.4671	  0.0000
     -4.0600	 20.8130	 20.8129	 -7.4671	  0.0000
     -4.0500	 20.8245	 20.8245	 -7.4671	  0.0000
     -4.0400	 20.8364	 20.8364	 -7.4671	  0.0000
     -4.0300	 20.8486	 20.8486	 -7.4671	  0.0000
     -4.0200	 20.8612	 20.8612	 -7.4671	  0.0000
     -4.0100	 20.8741	 20.8741	 -7.4671	  0.0000
     -4.0000	 20.8873	 20.8873	 -7.4671	  0.0000
     -3.9900	 20.9009	 20.9009	 -7.4671	  0.0000
     -3.9800	 20.9149	 20.9149	 -7.4671	  0.0000
     -3.9700	 20.9291	 20.9291	 -7.4671	  0.0000
     -3.9600	 20.9437	 20.9437	 -7.4671	  0.0000
     -3.9500	 20.9587	 20.9587	 -7.4671	  0.0000
     -3.9400	 20.9739	 20.9740	 -7.4672	  0.0000
     -3.9300	 20.9896	 20.9896	 -7.4671	  0.0000
     -3.9200	 21.0055	 21.0055	 -7.4671	  0.0000
     -3.9100	 21.0218	 21.0218	 -7.4672	  0.0000
     -3.9000	 21.0384	 21.0384	 -7.4671	  0.0000
     -3.8900	 21.0553	 21.0553	 -7.4671	  0.0000
     -3.8800	 21.0726	 21.0726	 -7.4671	  0.0000
     -3.8700	 21.0902	 21.0902	 -7.4671	  0.0000
     -3.8600	 21.1081	 21.1081	 -7.4672	  0.0000
     -3.8500	 21.1264	 21.1264	 -7.4671	  0.0000
     -3.8400	 21.1450	 21.1450	 -7.4671	  0.0000
     -3.8300	 21.1639	 21.1640	 -7.4671	  0.0000
     -3.8200	 21.1832	 21.1832	 -7.4671	  0.0000
     -3.8100	 21.2028	 21.2028	 -7.4671	  0.0000
     -3.8000	 21.2228	 21.2228	 -7.4672	  0.0000
     -3.7900	 21.2431	 21.2431	 -7.4672	  0.0000
     -3.7800	 21.2637	 21.2637	 -7.4671	  0.0000
     -3.7700	 21.2846	 21.2846	 -7.4672	  0.0000
     -3.7600	 21.3059	 21.3059	 -7.4671	  0.0000
     -3.7500	 21.3276	 21.3276	 -7.4671	  0.0000
     -3.7400	 21.3495	 21.3495	 -7.4672	  0.0000
     -3.7300	 21.3718	 21.3719	 -7.4672	  0.0000
     -3.7200	 21.3945	 21.3945	 -7.4672	  0.0000
     -3.7100	 21.4175	 21.4175	 -7.4672	  0.0000
     -3.7000	 21.4408	 21.4408	 -7.4672	  0.0000
     -3.6900	 21.4645	 21.4645	 -7.4671	  0.0000
     -3.6800	 21.4885	 21.4885	 -7.4672	  0.0000
     -3.6700	 21.5128	 21.5128	 -7.4671	  0.0000
     -3.6600	 21.5375	 21.5375	 -7.4671	  0.0000
     -3.6500	 21.5625	 21.5625	 -7.4672	  0.0000
     -3.6400	 21.5879	 21.5879	 -7.4672	  0.0000
     -3.6300	 21.6136	 21.6136	 -7.4672	  0.0000
     -3.6200	 21.6396	 21.6396	 -7.4671	  0.0000
     -3.6100	 21.6659	 21.6659	 -7.4672	  0.0000
     -3.6000	 21.6926	 21.6926	 -7.4671	  0.0000
     -3.5900	 21.7195	 21.7195	 -7.4672	  0.0000
     -3.5800	 21.7468	 21.7468	 -7.4671	  0.0000
     -3.5700	 21.7744	 21.7744	 -7.4671	  0.0000
     -3.5600	 21.8023	 21.8023	 -7.4672	  0.0000
     -3.5500	 21.8305	 21.8305	 -7.4672	  0.0000
     -3.5400	 21.8589	 21.8590	 -7.4672	  0.0000
     -3.5300	 21.8877	 21.8877	 -7.4671	  0.0000
     -3.5200	 21.9167	 21.9167	 -7.4672	  0.0000
     -3.5100	 21.9459	 21.9459	 -7.4672	  0.0000
     -3.5000	 21.9754	 21.9754	 -7.4672	  0.0000
     -3.4900	 22.0051	 22.0051	 -7.4671	  0.0000
     -3.4800	 22.0350	 22.0350	 -7.4672	  0.0000
     -3.4700	 22.0651	 22.0651	 -7.4672	  0.0000
     -3.4600	 22.0954	 22.0954	 -7.4672	  0.0000
     -3.4500	 22.1257	 22.1258	 -7.4672	  0.0000
     -3.4400	 22.1562	 22.1562	 -7.4672	  0.0000
     -3.4300	 22.1868	 22.1868	 -7.4671	  0.0000
     -3.4200	 22.2174	 22.2174	 -7.4672	  0.0000
     -3.4100	 22.2480	 22.2480	 -7.4672	  0.0000
     -3.4000	 22.2786	 22.2786	 -7.4672	  0.0000
     -3.3900	 22.3091	 22.3092	 -7.4672	  0.0000
     -3.3800	 22.3396	 22.3396	 -7.4672	  0.0000
     -3.3700	 22.3698	 22.3698	 -7.4672	  0.0000
     -3.3600	 22.3998	 22.3998	 -7.4672	  0.0000
     -3.3500	 22.4295	 22.4295	 -7.4672	  0.0000
     -3.3400	 22.4589	 22.4589	 -7.4672	  0.0000
     -3.3300	 22.4879	 22.4879	 -7.4672	  0.0000
     -3.3200	 22.5164	 22.5164	 -7.4672	  0.0000
     -3.3100	 22.5444	 22.5444	 -7.4672	  0.0000
     -3.3000	 22.5717	 22.5717	 -7.4672	  0.0000
     -3.2900	 22.5983	 22.5983	 -7.4672	  0.0000
     -3.2800	 22.6241	 22.6241	 -7.4671	  0.0000
     -3.2700	 22.6491	 22.6491	 -7.4672	  0.0000
     -3.2600	 22.6730	 22.6730	 -7.4672	  0.0000
     -3.2500	 22.6959	 22.6959	 -7.4672	  0.0000
     -3.2400	 22.7176	 22.7176	 -7.4672	  0.0000
     -3.2300	 22.7381	 22.7381	 -7.4672	  0.0000
     -3.2200	 22.7572	 22.7572	 -7.4672	  0.0000
     -3.2100	 22.7748	 22.7748	 -7.4672	  0.0000
     -3.2000	 22.7910	 22.7910	 -7.4672	  0.0000
     -3.1900	 22.8055	 22.8055	 -7.4672	  0.0000
     -3.1800	 22.8183	 22.8184	 -7.4672	  0.0000
     -3.1700	 22.8294	 22.8295	 -7.4672	  0.0000
     -3.1600	 22.8387	 22.8387	 -7.4672	  0.0000
     -3.1500	 22.8461	 22.8461	 -7.4672	  0.0000
     -3.1400	 22.8516	 22.8516	 -7.4672	  0.0000
     -3.1300	 22.8551	 22.8552	 -7.4672	  0.0000
     -3.1200	 22.8567	 22.8567	 -7.4672	  0.0000
     -3.1100	 22.8563	 22.8563	 -7.4672	  0.0000
     -3.1000	 22.8540	 22.8540	 -7.4672	  0.0000
     -3.0900	 22.8497	 22.8497	 -7.4672	  0.0000
     -3.0800	 22.8434	 22.8434	 -7.4672	  0.0000
     -3.0700	 22.8353	 22.8353	 -7.4672	  0.0000
     -3.0600	 22.8254	 22.8254	 -7.4672	  0.0000
     -3.0500	 22.8137	 22.8137	 -7.4672	  0.0000
     -3.0400	 22.8002	 22.8002	 -7.4672	  0.0000
     -3.0300	 22.7852	 22.7852	 -7.4672	  0.0000
     -3.0200	 22.7686	 22.7686	 -7.4672	  0.0000
     -3.0100	 22.7505	 22.7505	 -7.4672	  0.0000
     -3.0000	 22.7310	 22.7310	 -7.4672	  0.0000
     -2.9900	 22.7103	 22.7103	 -7.4672	  0.0000
     -2.9800	 22.6884	 22.6884	 -7.4672	  0.0000
     -2.9700	 22.6653	 22.6653	 -7.4671	  0.0000
     -2.9600	 22.6413	 22.6413	 -7.4672	  0.0000
     -2.9500	 22.6163	 22.6163	 -7.4672	  0.0000
     -2.9400	 22.5905	 22.5905	 -7.4672	  0.0000
     -2.9300	 22.5640	 22.5640	 -7.4672	  0.0000
     -2.9200	 22.5368	 22.5368	 -7.4672	  0.0000
     -2.9100	 22.5090	 22.5090	 -7.4672	  0.0000
     -2.9000	 22.4807	 22.4807	 -7.4672	  0.0000
     -2.8900	 22.4520	 22.4520	 -7.4672	  0.0000
     -2.8800	 22.4228	 22.4229	 -7.4672	  0.0000
     -2.8700	 22.3934	 22.3934	 -7.4672	  0.0000
     -2.8600	 22.3637	 22.3638	 -7.4672	  0.0000
     -2.8500	 22.3339	 22.3339	 -7.4672	  0.0000
     -2.8400	 22.3038	 22.3038	 -7.4672	  0.0000
     -2.8300	 22.2737	 22.2737	 -7.4672	  0.0000
     -2.8200	 22.2435	 22.2435	 -7.4672	  0.0000
     -2.8100	 22.2133	 22.2133	 -7.4672	  0.0000
     -2.8000	 22.1830	 22.1831	 -7.4672	  0.0000
     -2.7900	 22.1529	 22.1529	 -7.4672	  0.0000
     -2.7800	 22.1228	 22.1228	 -7.4672	  0.0000
     -2.7700	 22.0928	 22.0928	 -7.4671	  0.0000
     -2.7600	 22.0629	 22.0629	 -7.4671	  0.0000
     -2.7500	 22.0331	 22.0332	 -7.4671	  0.0000
     -2.7400	 22.0036	 22.0036	 -7.4672	  0.0000
     -2.7300	 21.9742	 21.9742	 -7.4672	  0.0000
     -2.7200	 21.9450	 21.9450	 -7.4672	  0.0000
     -2.7100	 21.9160	 21.9160	 -7.4672	  0.0000
     -2.7000	 21.8872	 21.8872	 -7.4671	  0.0000
     -2.6900	 21.8587	 21.8587	 -7.4672	  0.0000
     -2.6800	 21.8304	 21.8304	 -7.4672	  0.0000
     -2.6700	 21.8023	 21.8023	 -7.4672	  0.0000
     -2.6600	 21.7745	 21.7745	 -7.4672	  0.0000
     -2.6500	 21.7470	 21.7470	 -7.4672	  0.0000
     -2.6400	 21.7197	 21.7197	 -7.4672	  0.0000
     -2.6300	 21.6927	 21.6927	 -7.4672	  0.0000
     -2.6200	 21.6659	 21.6659	 -7.4671	  0.0000
     -2.6100	 21.6395	 21.6395	 -7.4672	  0.0000
     -2.6000	 21.6133	 21.6133	 -7.4671	  0.0000
     -2.5900	 21.5874	 21.5874	 -7.4672	  0.0000
     -2.5800	 21.5617	 21.5618	 -7.4672	  0.0000
     -2.5700	 21.5364	 21.5364	 -7.4672	  0.0000
     -2.5600	 21.5113	 21.5113	 -7.4672	  0.0000
     -2.5500	 21.4865	 21.4865	 -7.4671	  0.0000
     -2.5400	 21.4620	 21.4620	 -7.4671	  0.0000
     -2.5300	 21.4377	 21.4378	 -7.4672	  0.0000
     -2.5200	 21.4138	 21.4138	 -7.4672	  0.0000
     -2.5100	 21.3901	 21.3901	 -7.4671	  0.0000
     -2.5000	 21.3667	 21.3667	 -7.4672	  0.0000
     -2.4900	 21.3435	 21.3435	 -7.4672	  0.0000
     -2.4800	 21.3206	 21.3206	 -7.4672	  0.0000
     -2.4700	 21.2980	 21.2980	 -7.4672	  0.0000
     -2.4600	 21.2756	 21.2757	 -7.4672	  0.0000
     -2.4500	 21.2535	 21.2536	 -7.4672	  0.0000
     -2.4400	 21.2317	 21.2317	 -7.4672	  0.0000
     -2.4300	 21.2101	 21.2101	 -7.4671	  0.0000
     -2.4200	 21.1888	 21.1888	 -7.4671	  0.0000
     -2.4100	 21.1677	 21.1677	 -7.4672	  0.0000
     -2.4000	 21.1469	 21.1469	 -7.4672	  0.0000
     -2.3900	 21.1263	 21.1263	 -7.4672	  0.0000
     -2.3800	 21.1060	 21.1060	 -7.4672	  0.0000
     -2.3700	 21.0859	 21.0859	 -7.4671	  0.0000
     -2.3600	 21.0660	 21.0660	 -7.4672	  0.0000
     -2.3500	 21.0464	 21.0464	 -7.4672	  0.0000
     -2.3400	 21.0270	 21.0270	 -7.4671	  0.0000
     -2.3300	 21.0078	 21.0078	 -7.4671	  0.0000
     -2.3200	 20.9888	 20.9888	 -7.4672	  0.0000
     -2.3100	 20.9701	 20.9701	 -7.4671	  0.0000
     -2.3000	 20.9516	 20.9516	 -7.4672	  0.0000
     -2.2900	 20.9333	 20.9333	 -7.4672	  0.0000
     -2.2800	 20.9153	 20.9153	 -7.4672	  0.0000
     -2.2700	 20.8974	 20.8974	 -7.4671	  0.0000
     -2.2600	 20.8798	 20.8798	 -7.4671	  0.0000
     -2.2500	 20.8623	 20.8623	 -7.4672	  0.0000
     -2.2400	 20.8451	 20.8451	 -7.4671	  0.0000
     -2.2300	 20.8281	 20.8281	 -7.4672	  0.0000
     -2.2200	 20.8112	 20.8112	 -7.4672	  0.0000
     -2.2100	 20.7946	 20.7946	 -7.4672	  0.0000
     -2.2000	 20.7782	 20.7782	 -7.4672	  0.0000
     -2.1900	 20.7619	 20.7619	 -7.4671	  0.0000
     -2.1800	 20.7458	 20.7459	 -7.4672	  0.0000
     -2.1700	 20.7300	 20.7300	 -7.4671	  0.0000
     -2.1600	 20.7143	 20.7143	 -7.4671	  0.0000
     -2.1500	 20.6988	 20.6988	 -7.4672	  0.0000
     -2.1400	 20.6835	 20.6835	 -7.4671	  0.0000
     -2.1300	 20.6684	 20.6684	 -7.4671	  0.0000
     -2.1200	 20.6534	 20.6534	 -7.4672	  0.0000
     -2.1100	 20.6386	 20.6386	 -7.4672	  0.0000
     -2.1000	 20.6240	 20.6240	 -7.4671	  0.0000
     -2.0900	 20.6096	 20.6096	 -7.4671	  0.0000
     -2.0800	 20.5953	 20.5953	 -7.4671	  0.0000
     -2.0700	 20.5812	 20.5812	 -7.4672	  0.0000
     -2.0600	 20.5673	 20.5673	 -7.4671	  0.0000
     -2.0500	 20.5536	 20.5536	 -7.4671	  0.0000
     -2.0400	 20.5400	 20.5400	 -7.4672	  0.0000
     -2.0300	 20.5265	 20.5265	 -7.4671	  0.0000
     -2.0200	 20.5133	 20.5133	 -7.4672	  0.0000
     -2.0100	 20.5001	 20.5001	 -7.4672	  0.0000
     -2.0000	 20.4872	 20.4872	 -7.4672	  0.0000
     -1.9900	 20.4744	 20.4744	 -7.4671	  0.0000
     -1.9800	 20.4617	 20.4617	 -7.4672	  0.0000
     -1.9700	 20.4492	 20.4493	 -7.4672	  0.0000
     -1.9600	 20.4369	 20.4369	 -7.4672	  0.0000
     -1.9500	 20.4247	 20.4247	 -7.4671	  0.0000
     -1.9400	 20.4127	 20.4127	 -7.4672	  0.0000
     -1.9300	 20.4008	 20.4008	 -7.4672	  0.0000
     -1.9200	 20.3891	 20.3891	 -7.4672	  0.0000
     -1.9100	 20.3775	 20.3775	 -7.4672	  0.0000
     -1.9000	 20.3660	 20.3660	 -7.4671	  0.0000
     -1.8900	 20.3547	 20.3547	 -7.4671	  0.0000
     -1.8800	 20.3436	 20.3436	 -7.4671	  0.0000
     -1.8700	 20.3326	 20.3326	 -7.4671	  0.0000
     -1.8600	 20.3217	 20.3217	 -7.4671	  0.0000
     -1.8500	 20.3110	 20.3110	 -7.4671	  0.0000
     -1.8400	 20.3004	 20.3004	 -7.4672	  0.0000
     -1.8300	 20.2899	 20.2900	 -7.4672	  0.0000
     -1.8200	 20.2797	 20.2797	 -7.4671	  0.0000
     -1.8100	 20.2695	 20.2695	 -7.4671	  0.0000
     -1.8000	 20.2595	 20.2595	 -7.4672	  0.0000
     -1.7900	 20.2496	 20.2496	 -7.4671	  0.0000
     -1.7800	 20.2399	 20.2399	 -7.4672	  0.0000
     -1.7700	 20.2303	 20.2303	 -7.4671	  0.0000
     -1.7600	 20.2208	 20.2208	 -7.4672	  0.0000
     -1.7500	 20.2115	 20.2115	 -7.4671	  0.0000
     -1.7400	 20.2023	 20.2023	 -7.4671	  0.0000
     -1.7300	 20.1933	 20.1933	 -7.4671	  0.0000
     -1.7200	 20.1844	 20.1844	 -7.4671	  0.0000
     -1.7100	 20.1757	 20.1757	 -7.4671	  0.0000
     -1.7000	 20.1671	 20.1671	 -7.4671	  0.0000
     -1.6900	 20.1586	 20.1586	 -7.4671	  0.0000
     -1.6800	 20.1503	 20.1503	 -7.4672	  0.0000
     -1.6700	 20.1421	 20.1421	 -7.4672	  0.0000
     -1.6600	 20.1341	 20.1341	 -7.4671	  0.0000
     -1.6500	 20.1262	 20.1262	 -7.4672	  0.0000
     -1.6400	 20.1185	 20.1185	 -7.4671	  0.0000
     -1.6300	 20.1109	 20.1109	 -7.4671	  0.0000
     -1.6200	 20.1035	 20.1035	 -7.4672	  0.0000
     -1.6100	 20.0962	 20.0962	 -7.4671	  0.0000
     -1.6000	 20.0891	 20.0891	 -7.4671	  0.0000
     -1.5900	 20.0822	 20.0822	 -7.4671	  0.0000
     -1.5800	 20.0754	 20.0754	 -7.4672	  0.0000
     -1.5700	 20.0688	 20.0688	 -7.4671	  0.0000
     -1.5600	 20.0623	 20.0623	 -7.4672	  0.0000
     -1.5500	 20.0560	 20.0560	 -7.4671	  0.0000
     -1.5400	 20.0499	 20.0499	 -7.4672	  0.0000
     -1.5300	 20.0440	 20.0440	 -7.4672	  0.0000
     -1.5200	 20.0382	 20.0382	 -7.4672	  0.0000
     -1.5100	 20.0327	 20.0327	 -7.4672	  0.0000
     -1.5000	 20.0273	 20.0273	 -7.4671	  0.0000
     -1.4900	 20.0221	 20.0222	 -7.4672	  0.0000
     -1.4800	 20.0172	 20.0172	 -7.4671	  0.0000
     -1.4700	 20.0124	 20.0124	 -7.4671	  0.0000
     -1.4600	 20.0079	 20.0079	 -7.4672	  0.0000
     -1.4500	 20.0036	 20.0036	 -7.4672	  0.0000
     -1.4400	 19.9995	 19.9995	 -7.4671	  0.0000
     -1.4300	 19.9956	 19.9956	 -7.4672	  0.0000
     -1.4200	 19.9920	 19.9920	 -7.4671	  0.0000
     -1.4100	 19.9887	 19.9887	 -7.4671	  0.0000
     -1.4000	 19.9856	 19.9856	 -7.4672	  0.0000
     -1.3900	 19.9828	 19.9829	 -7.4671	  0.0000
     -1.3800	 19.9804	 19.9804	 -7.4671	  0.0000
     -1.3700	 19.9782	 19.9782	 -7.4672	  0.0000
     -1.3600	 19.9763	 19.9763	 -7.4672	  0.0000
     -1.3500	 19.9748	 19.9748	 -7.4671	  0.0000
     -1.3400	 19.9736	 19.9736	 -7.4672	  0.0000
     -1.3300	 19.9728	 19.9728	 -7.4671	  0.0000
     -1.3200	 19.9724	 19.9724	 -7.4671	  0.0000
     -1.3100	 19.9725	 19.9725	 -7.4671	  0.0000
     -1.3000	 19.9729	 19.9729	 -7.4672	  0.0000
     -1.2900	 19.9738	 19.9738	 -7.4671	  0.0000
     -1.2800	 19.9753	 19.9753	 -7.4671	  0.0000
     -1.2700	 19.9772	 19.9772	 -7.4671	  0.0000
     -1.2600	 19.9797	 19.9797	 -7.4671	  0.0000
     -1.2500	 19.9828	 19.9828	 -7.4672	  0.0000
     -1.2400	 19.9865	 19.9865	 -7.4672	  0.0000
     -1.2300	 19.9909	 19.9909	 -7.4672	  0.0000
     -1.2200	 19.9960	 19.9960	 -7.4671	  0.0000
     -1.2100	 20.0019	 20.0019	 -7.4671	  0.0000
     -1.2000	 20.0087	 20.0087	 -7.4671	  0.0000
     -1.1900	 20.0163	 20.0163	 -7.4672	  0.0000
     -1.1800	 20.0249	 20.0249	 -7.4672	  0.0000
     -1.1700	 20.0345	 20.0345	 -7.4671	  0.0000
     -1.1600	 20.0451	 20.0451	 -7.4672	  0.0000
     -1.1500	 20.0570	 20.0570	 -7.4672	  0.0000
     -1.1400	 20.0702	 20.0702	 -7.4671	  0.0000
     -1.1300	 20.0847	 20.0847	 -7.4671	  0.0000
     -1.1200	 20.1007	 20.1007	 -7.4671	  0.0000
     -1.1100	 20.1183	 20.1183	 -7.4672	  0.0000
     -1.1000	 20.1376	 20.1376	 -7.4672	  0.0000
     -1.0900	 20.1588	 20.1588	 -7.4671	  0.0000
     -1.0800	 20.1820	 20.1820	 -7.4671	  0.0000
     -1.0700	 20.2072	 20.2072	 -7.4672	  0.0000
     -1.0600	 20.2348	 20.2348	 -7.4672	  0.0000
     -1.0500	 20.2648	 20.2648	 -7.4672	  0.0000
     -1.0400	 20.2974	 20.2974	 -7.4671	  0.0000
     -1.0300	 20.3327	 20.3327	 -7.4672	  0.0000
     -1.0200	 20.3710	 20.3710	 -7.4672	  0.0000
     -1.0100	 20.4123	 20.4123	 -7.4671	  0.0000
     -1.0000	 20.4566	 20.4567	 -7.4672	  0.0000
     -0.9900	 20.5042	 20.5042	 -7.4672	  0.0000
     -0.9800	 20.5550	 20.5550	 -7.4672	  0.0000
     -0.9700	 20.6089	 20.6089	 -7.4671	  0.0000
     -0.9600	 20.6658	 20.6658	 -7.4672	  0.0000
     -0.9500	 20.7252	 20.7253	 -7.4672	  0.0000
     -0.9400	 20.7868	 20.7868	 -7.4672	  0.0000
     -0.9300	 20.8497	 20.8497	 -7.4672	  0.0000
     -0.9200	 20.9129	 20.9129	 -7.4672	  0.0000
     -0.9100	 20.9752	 20.9752	 -7.4671	  0.0000
     -0.9000	 21.0348	 21.0348	 -7.4672	  0.0000
     -0.8900	 21.0898	 21.0898	 -7.4672	  0.0000
     -0.8800	 21.1382	 21.1382	 -7.4672	  0.0000
     -0.8700	 21.1776	 21.1776	 -7.4672	  0.0000
     -0.8600	 21.2061	 21.2061	 -7.4672	  0.0000
     -0.8500	 21.2219	 21.2219	 -7.4672	  0.0000
     -0.8400	 21.2242	 21.2242	 -7.4671	  0.0000
     -0.8300	 21.2126	 21.2126	 -7.4671	  0.0000
     -0.8200	 21.1878	 21.1878	 -7.4672	  0.0000
     -0.8100	 21.1512	 21.1512	 -7.4672	  0.0000
     -0.8000	 21.1047	 21.1047	 -7.4672	  0.0000
     -0.7900	 21.0502	 21.0502	 -7.4672	  0.0000
     -0.7800	 20.9901	 20.9901	 -7.4672	  0.0000
     -0.7700	 20.9263	 20.9263	 -7.4672	  0.0000
     -0.7600	 20.8606	 20.8606	 -7.4671	  0.0000
     -0.7500	 20.7943	 20.7943	 -7.4672	  0.0000
     -0.7400	 20.7286	 20.7287	 -7.4672	  0.0000
     -0.7300	 20.6644	 20.6645	 -7.4671	  0.0000
     -0.7200	 20.6023	 20.6023	 -7.4672	  0.0000
     -0.7100	 20.5427	 20.5427	 -7.4672	  0.0000
     -0.7000	 20.4857	 20.4857	 -7.4672	  0.0000
     -0.6900	 20.4316	 20.4317	 -7.4672	  0.0000
     -0.6800	 20.3805	 20.3805	 -7.4671	  0.0000
     -0.6700	 20.3322	 20.3322	 -7.4671	  0.0000
     -0.6600	 20.2867	 20.2867	 -7.4671	  0.0000
     -0.6500	 20.2439	 20.2439	 -7.4671	  0.0000
     -0.6400	 20.2037	 20.2037	 -7.4672	  0.0000
     -0.6300	 20.1660	 20.1660	 -7.4671	  0.0000
     -0.6200	 20.1305	 20.1305	 -7.4671	  0.0000
     -0.6100	 20.0973	 20.0973	 -7.4671	  0.0000
     -0.6000	 20.0661	 20.0661	 -7.4671	  0.0000
     -0.5900	 20.0368	 20.0368	 -7.4671	  0.0000
     -0.5800	 20.0093	 20.0093	 -7.4672	  0.0000
     -0.5700	 19.9834	 19.9834	 -7.4671	  0.0000
     -0.5600	 19.9591	 19.9591	 -7.4671	  0.0000
     -0.5500	 19.9362	 19.9362	 -7.4671	  0.0000
     -0.5400	 19.9146	 19.9147	 -7.4671	  0.0000
     -0.5300	 19.8944	 19.8944	 -7.4671	  0.0000
     -0.5200	 19.8752	 19.8752	 -7.4672	  0.0000
     -0.5100	 19.8571	 19.8572	 -7.4672	  0.0000
     -0.5000	 19.8401	 19.8401	 -7.4671	  0.0000
     -0.4900	 19.8240	 19.8240	 -7.4671	  0.0000
     -0.4800	 19.8087	 19.8088	 -7.4672	  0.0000
     -0.4700	 19.7943	 19.7943	 -7.4671	  0.0000
     -0.4600	 19.7807	 19.7807	 -7.4671	  0.0000
     -0.4500	 19.7677	 19.7677	 -7.4671	  0.0000
     -0.4400	 19.7554	 19.7554	 -7.4671	  0.0000
     -0.4300	 19.7438	 19.7438	 -7.4672	  0.0000
     -0.4200	 19.7327	 19.7327	 -7.4672	  0.0000
     -0.4100	 19.7222	 19.7222	 -7.4672	  0.0000
     -0.4000	 19.7122	 19.7122	 -7.4672	  0.0000
     -0.3900	 19.7027	 19.7027	 -7.4671	  0.0000
     -0.3800	 19.6936	 19.6936	 -7.4671	  0.0000
     -0.3700	 19.6850	 19.6850	 -7.4672	  0.0000
     -0.3600	 19.6768	 19.6768	 -7.4671	  0.0000
     -0.3500	 19.6689	 19.6689	 -7.4672	  0.0000
     -0.3400	 19.6615	 19.6615	 -7.4672	  0.0000
     -0.3300	 19.6543	 19.6543	 -7.4671	  0.0000
     -0.3200	 19.6475	 19.6476	 -7.4672	  0.0000
     -0.3100	 19.6411	 19.6411	 -7.4671	  0.0000
     -0.3000	 19.6349	 19.6349	 -7.4671	  0.0000
     -0.2900	 19.6290	 19.6290	 -7.4671	  0.0000
     -0.2800	 19.6233	 19.6233	 -7.4671	  0.0000
     -0.2700	 19.6179	 19.6179	 -7.4671	  0.0000
     -0.2600	 19.6128	 19.6128	 -7.4672	  0.0000
     -0.2500	 19.6079	 19.6079	 -7.4671	  0.0000
     -0.2400	 19.6032	 19.6032	 -7.4671	  0.0000
     -0.2300	 19.5987	 19.5987	 -7.4671	  0.0000
     -0.2200	 19.5944	 19.5944	 -7.4671	  0.0000
     -0.2100	 19.5903	 19.5904	 -7.4671	  0.0000
     -0.2000	 19.5865	 19.5865	 -7.4671	  0.0000
     -0.1900	 19.5828	 19.5828	 -7.4671	  0.0000
     -0.1800	 19.5792	 19.5792	 -7.4671	  0.0000
     -0.1700	 19.5758	 19.5758	 -7.4672	  0.0000
     -0.1600	 19.5726	 19.5726	 -7.4671	  0.0000
     -0.1500	 19.5696	 19.5696	 -7.4671	  0.0000
     -0.1400	 19.5667	 19.5667	 -7.4671	  0.0000
     -0.1300	 19.5639	 19.5639	 -7.4671	  0.0000
     -0.1200	 19.5613	 19.5613	 -7.4671	  0.0000
     -0.1100	 19.5588	 19.5589	 -7.4672	  0.0000
     -0.1000	 19.5565	 19.5565	 -7.4671	  0.0000
     -0.0900	 19.5543	 19.5543	 -7.4672	  0.0000
     -0.0800	 19.5522	 19.5522	 -7.4671	  0.0000
     -0.0700	 19.5503	 19.5503	 -7.4671	  0.0000
     -0.0600	 19.5484	 19.5484	 -7.4671	  0.0000
     -0.0500	 19.5467	 19.5467	 -7.4671	  0.0000
     -0.0400	 19.5451	 19.5451	 -7.4671	  0.0000
     -0.0300	 19.5436	 19.5436	 -7.4671	  0.0000
     -0.0200	 19.5422	 19.5422	 -7.4672	  0.0000
     -0.0100	 19.5409	 19.5409	 -7.4672	  0.0000
      0.0000	 19.5397	 19.5398	 -7.4671	  0.0000
      0.0100	 19.5387	 19.5387	 -7.4671	  0.0000
      0.0200	 19.5377	 19.5377	 -7.4671	  0.0000
      0.0300	 19.5368	 19.5368	 -7.4671	  0.0000
      0.0400	 19.5361	 19.5361	 -7.4671	  0.0000
      0.0500	 19.5354	 19.5354	 -7.4671	  0.0000
      0.0600	 19.5348	 19.5348	 -7.4671	  0.0000
      0.0700	 19.5343	 19.5343	 -7.4671	  0.0000
      0.0800	 19.5340	 19.5340	 -7.4671	  0.0000
      0.0900	 19.5337	 19.5337	 -7.4671	  0.0000
      0.1000	 19.5334	 19.5335	 -7.4672	  0.0000
      0.1100	 19.5333	 19.5333	 -7.4672	  0.0000
      0.1200	 19.5333	 19.5333	 -7.4672	  0.0000
      0.1300	 19.5334	 19.5334	 -7.4671	  0.0000
      0.1400	 19.5336	 19.5336	 -7.4671	  0.0000
      0.1500	 19.5338	 19.5338	 -7.4671	  0.0000
      0.1600	 19.5341	 19.5342	 -7.4672	  0.0000
      0.1700	 19.5346	 19.5346	 -7.4671	  0.0000
      0.1800	 19.5351	 19.5351	 -7.4671	  0.0000
      0.1900	 19.5357	 19.5357	 -7.4672	  0.0000
      0.2000	 19.5364	 19.5364	 -7.4671	  0.0000
      0.2100	 19.5372	 19.5372	 -7.4671	  0.0000
      0.2200	 19.5381	 19.5381	 -7.4671	  0.0000
      0.2300	 19.5391	 19.5391	 -7.4671	  0.0000
      0.2400	 19.5402	 19.5402	 -7.4671	  0.0000
      0.2500	 19.5413	 19.5414	 -7.4672	  0.0000
      0.2600	 19.5426	 19.5426	 -7.4671	  0.0000
      0.2700	 19.5440	 19.5440	 -7.4671	  0.0000
      0.2800	 19.5455	 19.5455	 -7.4671	  0.0000
      0.2900	 19.5470	 19.5470	 -7.4671	  0.0000
      0.3000	 19.5487	 19.5487	 -7.4671	  0.0000
      0.3100	 19.5505	 19.5505	 -7.4672	  0.0000
      0.3200	 19.5524	 19.5524	 -7.4672	  0.0000
      0.3300	 19.5544	 19.5544	 -7.4672	  0.0000
      0.3400	 19.5565	 19.5565	 -7.4672	  0.0000
      0.3500	 19.5587	 19.5587	 -7.4672	  0.0000
      0.3600	 19.5611	 19.5611	 -7.4672	  0.0000
      0.3700	 19.5636	 19.5636	 -7.4672	  0.0000
      0.3800	 19.5662	 19.5662	 -7.4671	  0.0000
      0.3900	 19.5690	 19.5690	 -7.4671	  0.0000
      0.4000	 19.5719	 19.5719	 -7.4671	  0.0000
      0.4100	 19.5749	 19.5749	 -7.4671	  0.0000
      0.4200	 19.5782	 19.5782	 -7.4671	  0.0000
      0.4300	 19.5815	 19.5815	 -7.4672	  0.0000
      0.4400	 19.5851	 19.5851	 -7.4671	  0.0000
      0.4500	 19.5889	 19.5889	 -7.4672	  0.0000
      0.4600	 19.5928	 19.5928	 -7.4671	  0.0000
      0.4700	 19.5970	 19.5970	 -7.4671	  0.0000
      0.4800	 19.6014	 19.6014	 -7.4671	  0.0000
      0.4900	 19.6060	 19.6060	 -7.4671	  0.0000
      0.5000	 19.6109	 19.6109	 -7.4671	  0.0000
      0.5100	 19.6161	 19.6161	 -7.4671	  0.0000
      0.5200	 19.6216	 19.6216	 -7.4671	  0.0000
      0.5300	 19.6274	 19.6274	 -7.4671	  0.0000
      0.5400	 19.6335	 19.6335	 -7.4672	  0.0000
      0.5500	 19.6401	 19.6401	 -7.4672	  0.0000
      0.5600	 19.6470	 19.6470	 -7.4672	  0.0000
      0.5700	 19.6545	 19.6545	 -7.4671	  0.0000
      0.5800	 19.6624	 19.6624	 -7.4671	  0.0000
      0.5900	 19.6709	 19.6709	 -7.4672	  0.0000
      0.6000	 19.6800	 19.6800	 -7.4671	  0.0000
      0.6100	 19.6898	 19.6898	 -7.4671	  0.0000
      0.6200	 19.7003	 19.7003	 -7.4672	  0.0000
      0.6300	 19.7117	 19.7117	 -7.4672	  0.0000
      0.6400	 19.7239	 19.7239	 -7.4671	  0.0000
      0.6500	 19.7371	 19.7371	 -7.4671	  0.0000
      0.6600	 19.7515	 19.7515	 -7.4671	  0.0000
      0.6700	 19.7670	 19.7670	 -7.4671	  0.0000
      0.6800	 19.7838	 19.7838	 -7.4672	  0.0000
      0.6900	 19.8020	 19.8020	 -7.4671	  0.0000
      0.7000	 19.8217	 19.8217	 -7.4672	  0.0000
      0.7100	 19.8430	 19.8430	 -7.4672	  0.0000
      0.7200	 19.8658	 19.8658	 -7.4672	  0.0000
      0.7300	 19.8902	 19.8902	 -7.4671	  0.0000
      0.7400	 19.9160	 19.9160	 -7.4672	  0.0000
      0.7500	 19.9429	 19.9429	 -7.4671	  0.0000
      0.7600	 19.9707	 19.9707	 -7.4672	  0.0000
      0.7700	 19.9986	 19.9986	 -7.4672	  0.0000
      0.7800	 20.0258	 20.0258	 -7.4672	  0.0000
      0.7900	 20.0513	 20.0513	 -7.4671	  0.0000
      0.8000	 20.0740	 20.0740	 -7.4672	  0.0000
      0.8100	 20.0926	 20.0926	 -7.4671	  0.0000
      0.8200	 20.1060	 20.1060	 -7.4672	  0.0000
      0.8300	 20.1134	 20.1134	 -7.4672	  0.0000
      0.8400	 20.1145	 20.1145	 -7.4672	  0.0000
      0.8500	 20.1093	 20.1093	 -7.4671	  0.0000
      0.8600	 20.0986	 20.0986	 -7.4671	  0.0000
      0.8700	 20.0833	 20.0833	 -7.4671	  0.0000
      0.8800	 20.0647	 20.0647	 -7.4672	  0.0000
      0.8900	 20.0441	 20.0441	 -7.4672	  0.0000
      0.9000	 20.0225	 20.0225	 -7.4672	  0.0000
      0.9100	 20.0009	 20.0009	 -7.4672	  0.0000
      0.9200	 19.9801	 19.9801	 -7.4672	  0.0000
      0.9300	 19.9605	 19.9605	 -7.4671	  0.0000
      0.9400	 19.9424	 19.9424	 -7.4671	  0.0000
      0.9500	 19.9259	 19.9259	 -7.4671	  0.0000
      0.9600	 19.9112	 19.9112	 -7.4672	  0.0000
      0.9700	 19.8983	 19.8983	 -7.4671	  0.0000
      0.9800	 19.8869	 19.8869	 -7.4671	  0.0000
      0.9900	 19.8771	 19.8771	 -7.4672	  0.0000
      1.0000	 19.8687	 19.8687	 -7.4672	  0.0000
      1.0100	 19.8617	 19.8617	 -7.4672	  0.0000
      1.0200	 19.8558	 19.8558	 -7.4671	  0.0000
      1.0300	 19.8510	 19.8510	 -7.4671	  0.0000
      1.0400	 19.8472	 19.8472	 -7.4672	  0.0000
      1.0500	 19.8442	 19.8443	 -7.4671	  0.0000
      1.0600	 19.8421	 19.8421	 -7.4672	  0.0000
      1.0700	 19.8407	 19.8407	 -7.4672	  0.0000
      1.0800	 19.8400	 19.8400	 -7.4672	  0.0000
      1.0900	 19.8398	 19.8398	 -7.4671	  0.0000
      1.1000	 19.8402	 19.8402	 -7.4672	  0.0000
      1.1100	 19.8411	 19.8411	 -7.4672	  0.0000
      1.1200	 19.8424	 19.8424	 -7.4672	  0.0000
      1.1300	 19.8441	 19.8441	 -7.4672	  0.0000
      1.1400	 19.8462	 19.8462	 -7.4672	  0.0000
      1.1500	 19.8487	 19.8487	 -7.4672	  0.0000
      1.1600	 19.8514	 19.8514	 -7.4672	  0.0000
      1.1700	 19.8545	 19.8545	 -7.4672	  0.0000
      1.1800	 19.8578	 19.8578	 -7.4671	  0.0000
      1.1900	 19.8614	 19.8614	 -7.4672	  0.0000
      1.2000	 19.8652	 19.8652	 -7.4671	  0.0000
      1.2100	 19.8693	 19.8693	 -7.4671	  0.0000
      1.2200	 19.8735	 19.8736	 -7.4672	  0.0000
      1.2300	 19.8780	 19.8780	 -7.4671	  0.0000
      1.2400	 19.8826	 19.8827	 -7.4672	  0.0000
      1.2500	 19.8875	 19.8875	 -7.4671	  0.0000
      1.2600	 19.8925	 19.8925	 -7.4671	  0.0000
      1.2700	 19.8976	 19.8976	 -7.4672	  0.0000
      1.2800	 19.9029	 19.9029	 -7.4671	  0.0000
      1.2900	 19.9084	 19.9084	 -7.4671	  0.0000
      1.3000	 19.9140	 19.9140	 -7.4671	  0.0000
      1.3100	 19.9197	 19.9197	 -7.4671	  0.0000
      1.3200	 19.9256	 19.9256	 -7.4671	  0.0000
      1.3300	 19.9316	 19.9316	 -7.4672	  0.0000
      1.3400	 19.9377	 19.9377	 -7.4671	  0.0000
      1.3500	 19.9440	 19.9440	 -7.4671	  0.0000
      1.3600	 19.9503	 19.9504	 -7.4672	  0.0000
      1.3700	 19.9568	 19.9569	 -7.4672	  0.0000
      1.3800	 19.9634	 19.9635	 -7.4672	  0.0000
      1.3900	 19.9702	 19.9702	 -7.4672	  0.0000
      1.4000	 19.9770	 19.9770	 -7.4671	  0.0000
      1.4100	 19.9839	 19.9840	 -7.4671	  0.0000
      1.4200	 19.9910	 19.9910	 -7.4672	  0.0000
      1.4300	 19.9982	 19.9982	 -7.4671	  0.0000
      1.4400	 20.0054	 20.0054	 -7.4672	  0.0000
      1.4500	 20.0128	 20.0128	 -7.4672	  0.0000
      1.4600	 20.0203	 20.0203	 -7.4671	  0.0000
      1.4700	 20.0278	 20.0279	 -7.4671	  0.0000
      1.4800	 20.0355	 20.0355	 -7.4671	  0.0000
      1.4900	 20.0433	 20.0433	 -7.4671	  0.0000
      1.5000	 20.0512	 20.0512	 -7.4671	  0.0000
      1.5100	 20.0592	 20.0592	 -7.4672	  0.0000
      1.5200	 20.0673	 20.0673	 -7.4672	  0.0000
      1.5300	 20.0755	 20.0755	 -7.4672	  0.0000
      1.5400	 20.0837	 20.0838	 -7.4672	  0.0000
      1.5500	 20.0921	 20.0922	 -7.4671	  0.0000
      1.5600	 20.1006	 20.1006	 -7.4672	  0.0000
      1.5700	 20.1092	 20.1092	 -7.4671	  0.0000
      1.5800	 20.1179	 20.1179	 -7.4671	  0.0000
      1.5900	 20.1267	 20.1267	 -7.4671	  0.0000
      1.6000	 20.1356	 20.1356	 -7.4671	  0.0000
      1.6100	 20.1446	 20.1446	 -7.4672	  0.0000
      1.6200	 20.1537	 20.1538	 -7.4672	  0.0000
      1.6300	 20.1630	 20.1630	 -7.4672	  0.0000
      1.6400	 20.1723	 20.1723	 -7.4671	  0.0000
      1.6500	 20.1817	 20.1817	 -7.4671	  0.0000
      1.6600	 20.1912	 20.1912	 -7.4672	  0.0000
      1.6700	 20.2008	 20.2009	 -7.4672	  0.0000
      1.6800	 20.2106	 20.2106	 -7.4672	  0.0000
      1.6900	 20.2204	 20.2204	 -7.4672	  0.0000
      1.7000	 20.2304	 20.2304	 -7.4671	  0.0000
      1.7100	 20.2404	 20.2405	 -7.4671	  0.0000
      1.7200	 20.2506	 20.2506	 -7.4671	  0.0000
      1.7300	 20.2609	 20.2609	 -7.4672	  0.0000
      1.7400	 20.2713	 20.2713	 -7.4671	  0.0000
      1.7500	 20.2818	 20.2818	 -7.4671	  0.0000
      1.7600	 20.2924	 20.2924	 -7.4672	  0.0000
      1.7700	 20.3031	 20.3031	 -7.4672	  0.0000
      1.7800	 20.3140	 20.3140	 -7.4672	  0.0000
      1.7900	 20.3249	 20.3249	 -7.4672	  0.0000
      1.8000	 20.3360	 20.3360	 -7.4671	  0.0000
      1.8100	 20.3472	 20.3472	 -7.4672	  0.0000
      1.8200	 20.3585	 20.3585	 -7.4672	  0.0000
      1.8300	 20.3699	 20.3700	 -7.4671	  0.0000
      1.8400	 20.3815	 20.3815	 -7.4672	  0.0000
      1.8500	 20.3932	 20.3932	 -7.4671	  0.0000
      1.8600	 20.4050	 20.4050	 -7.4671	  0.0000
      1.8700	 20.4169	 20.4169	 -7.4672	  0.0000
      1.8800	 20.4289	 20.4290	 -7.4672	  0.0000
      1.8900	 20.4411	 20.4411	 -7.4672	  0.0000
      1.9000	 20.4534	 20.4534	 -7.4671	  0.0000
      1.9100	 20.4659	 20.4659	 -7.4671	  0.0000
      1.9200	 20.4785	 20.4785	 -7.4671	  0.0000
      1.9300	 20.4911	 20.4912	 -7.4671	  0.0000
      1.9400	 20.5040	 20.5040	 -7.4671	  0.0000
      1.9500	 20.5170	 20.5170	 -7.4672	  0.0000
      1.9600	 20.5301	 20.5301	 -7.4672	  0.0000
      1.9700	 20.5433	 20.5433	 -7.4672	  0.0000
      1.9800	 20.5567	 20.5567	 -7.4671	  0.0000
      1.9900	 20.5702	 20.5703	 -7.4672	  0.0000
      2.0000	 20.5839	 20.5839	 -7.4672	  0.0000
      2.0100	 20.5977	 20.5978	 -7.4672	  0.0000
      2.0200	 20.6117	 20.6117	 -7.4671	  0.0000
      2.0300	 20.6259	 20.6259	 -7.4671	  0.0000
      2.0400	 20.6401	 20.6401	 -7.4672	  0.0000
      2.0500	 20.6546	 20.6546	 -7.4671	  0.0000
      2.0600	 20.6691	 20.6691	 -7.4672	  0.0000
      2.0700	 20.6839	 20.6839	 -7.4672	  0.0000
      2.0800	 20.6988	 20.6988	 -7.4671	  0.0000
      2.0900	 20.7138	 20.7138	 -7.4671	  0.0000
      2.1000	 20.7290	 20.7291	 -7.4672	  0.0000
      2.1100	 20.7444	 20.7444	 -7.4671	  0.0000
      2.1200	 20.7600	 20.7600	 -7.4672	  0.0000
      2.1300	 20.7757	 20.7757	 -7.4671	  0.0000
      2.1400	 20.7916	 20.7916	 -7.4672	  0.0000
      2.1500	 20.8077	 20.8077	 -7.4672	  0.0000
      2.1600	 20.8239	 20.8239	 -7.4671	  0.0000
      2.1700	 20.8403	 20.8404	 -7.4672	  0.0000
      2.1800	 20.8570	 20.8570	 -7.4671	  0.0000
      2.1900	 20.8737	 20.8738	 -7.4672	  0.0000
      2.2000	 20.8907	 20.8907	 -7.4671	  0.0000
      2.2100	 20.9079	 20.9079	 -7.4672	  0.0000
      2.2200	 20.9252	 20.9252	 -7.4672	  0.0000
      2.2300	 20.9428	 20.9428	 -7.4671	  0.0000
      2.2400	 20.9605	 20.9605	 -7.4671	  0.0000
      2.2500	 20.9785	 20.9785	 -7.4671	  0.0000
      2.2600	 20.9966	 20.9966	 -7.4671	  0.0000
      2.2700	 21.0149	 21.0149	 -7.4671	  0.0000
      2.2800	 21.0335	 21.0335	 -7.4671	  0.0000
      2.2900	 21.0522	 21.0523	 -7.4672	  0.0000
      2.3000	 21.0712	 21.0712	 -7.4672	  0.0000
      2.3100	 21.0904	 21.0904	 -7.4671	  0.0000
      2.3200	 21.1098	 21.1098	 -7.4671	  0.0000
      2.3300	 21.1294	 21.1294	 -7.4671	  0.0000
      2.3400	 21.1493	 21.1493	 -7.4671	  0.0000
      2.3500	 21.1693	 21.1693	 -7.4671	  0.0000
      2.3600	 21.1896	 21.1896	 -7.4672	  0.0000
      2.3700	 21.2101	 21.2102	 -7.4672	  0.0000
      2.3800	 21.2309	 21.2309	 -7.4672	  0.0000
      2.3900	 21.2519	 21.2519	 -7.4671	  0.0000
      2.4000	 21.2731	 21.2732	 -7.4672	  0.0000
      2.4100	 21.2946	 21.2946	 -7.4672	  0.0000
      2.4200	 21.3164	 21.3164	 -7.4671	  0.0000
      2.4300	 21.3383	 21.3383	 -7.4672	  0.0000
      2.4400	 21.3605	 21.3605	 -7.4672	  0.0000
      2.4500	 21.3830	 21.3830	 -7.4672	  0.0000
      2.4600	 21.4058	 21.4058	 -7.4671	  0.0000
      2.4700	 21.4287	 21.4287	 -7.4672	  0.0000
      2.4800	 21.4520	 21.4520	 -7.4672	  0.0000
      2.4900	 21.4755	 21.4755	 -7.4672	  0.0000
      2.5000	 21.4993	 21.4993	 -7.4671	  0.0000
      2.5100	 21.5233	 21.5233	 -7.4671	  0.0000
      2.5200	 21.5476	 21.5476	 -7.4671	  0.0000
      2.5300	 21.5722	 21.5722	 -7.4671	  0.0000
      2.5400	 21.5970	 21.5971	 -7.4672	  0.0000
      2.5500	 21.6222	 21.6222	 -7.4671	  0.0000
      2.5600	 21.6476	 21.6476	 -7.4672	  0.0000
      2.5700	 21.6732	 21.6732	 -7.4671	  0.0000
      2.5800	 21.6992	 21.6992	 -7.4671	  0.0000
      2.5900	 21.7254	 21.7254	 -7.4672	  0.0000
      2.6000	 21.7519	 21.7519	 -7.4672	  0.0000
      2.6100	 21.7786	 21.7786	 -7.4672	  0.0000
      2.6200	 21.8056	 21.8057	 -7.4672	  0.0000
      2.6300	 21.8329	 21.8329	 -7.4672	  0.0000
      2.6400	 21.8605	 21.8605	 -7.4671	  0.0000
      2.6500	 21.8883	 21.8883	 -7.4672	  0.0000
      2.6600	 21.9164	 21.9164	 -7.4672	  0.0000
      2.6700	 21.9447	 21.9447	 -7.4672	  0.0000
      2.6800	 21.9732	 21.9732	 -7.4672	  0.0000
      2.6900	 22.0020	 22.0020	 -7.4672	  0.0000
      2.7000	 22.0310	 22.0311	 -7.4671	  0.0000
      2.7100	 22.0603	 22.0603	 -7.4671	  0.0000
      2.7200	 22.0897	 22.0897	 -7.4672	  0.0000
      2.7300	 22.1193	 22.1193	 -7.4672	  0.0000
      2.7400	 22.1491	 22.1491	 -7.4672	  0.0000
      2.7500	 22.1791	 22.1791	 -7.4672	  0.0000
      2.7600	 22.2092	 22.2092	 -7.4671	  0.0000
      2.7700	 22.2394	 22.2394	 -7.4671	  0.0000
      2.7800	 22.2697	 22.2697	 -7.4672	  0.0000
      2.7900	 22.3001	 22.3001	 -7.4672	  0.0000
      2.8000	 22.3305	 22.3305	 -7.4672	  0.0000
      2.8100	 22.3609	 22.3609	 -7.4671	  0.0000
      2.8200	 22.3912	 22.3913	 -7.4672	  0.0000
      2.8300	 22.4216	 22.4216	 -7.4672	  0.0000
      2.8400	 22.4517	 22.4518	 -7.4672	  0.0000
      2.8500	 22.4818	 22.4818	 -7.4672	  0.0000
      2.8600	 22.5116	 22.5116	 -7.4672	  0.0000
      2.8700	 22.5412	 22.5412	 -7.4672	  0.0000
      2.8800	 22.5705	 22.5705	 -7.4671	  0.0000
      2.8900	 22.5993	 22.5993	 -7.4672	  0.0000
      2.9000	 22.6278	 22.6278	 -7.4672	  0.0000
      2.9100	 22.6557	 22.6557	 -7.4672	  0.0000
      2.9200	 22.6830	 22.6830	 -7.4672	  0.0000
      2.9300	 22.7096	 22.7097	 -7.4672	  0.0000
      2.9400	 22.7355	 22.7355	 -7.4672	  0.0000
      2.9500	 22.7606	 22.7606	 -7.4672	  0.0000
      2.9600	 22.7847	 22.7847	 -7.4672	  0.0000
      2.9700	 22.8079	 22.8079	 -7.4672	  0.0000
      2.9800	 22.8299	 22.8299	 -7.4672	  0.0000
      2.9900	 22.8507	 22.8507	 -7.4672	  0.0000
      3.0000	 22.8702	 22.8702	 -7.4672	  0.0000
      3.0100	 22.8883	 22.8884	 -7.4672	  0.0000
      3.0200	 22.9050	 22.9050	 -7.4672	  0.0000
      3.0300	 22.9201	 22.9201	 -7.4672	  0.0000
      3.0400	 22.9336	 22.9336	 -7.4672	  0.0000
      3.0500	 22.9453	 22.9453	 -7.4672	  0.0000
      3.0600	 22.9553	 22.9553	 -7.4672	  0.0000
      3.0700	 22.9634	 22.9635	 -7.4672	  0.0000
      3.0800	 22.9697	 22.9697	 -7.4672	  0.0000
      3.0900	 22.9740	 22.9740	 -7.4672	  0.0000
      3.1000	 22.9764	 22.9764	 -7.4672	  0.0000
      3.1100	 22.9767	 22.9768	 -7.4672	  0.0000
      3.1200	 22.9751	 22.9752	 -7.4672	  0.0000
      3.1300	 22.9716	 22.9716	 -7.4672	  0.0000
      3.1400	 22.9661	 22.9661	 -7.4672	  0.0000
      3.1500	 22.9586	 22.9586	 -7.4672	  0.0000
      3.1600	 22.9493	 22.9493	 -7.4672	  0.0000
      3.1700	 22.9382	 22.9382	 -7.4672	  0.0000
      3.1800	 22.9253	 22.9253	 -7.4672	  0.0000
      3.1900	 22.9107	 22.9107	 -7.4672	  0.0000
      3.2000	 22.8945	 22.8945	 -7.4672	  0.0000
      3.2100	 22.8767	 22.8767	 -7.4672	  0.0000
      3.2200	 22.8575	 22.8575	 -7.4672	  0.0000
      3.2300	 22.8370	 22.8370	 -7.4672	  0.0000
      3.2400	 22.8152	 22.8152	 -7.4672	  0.0000
      3.2500	 22.7922	 22.7922	 -7.4672	  0.0000
      3.2600	 22.7681	 22.7681	 -7.4672	  0.0000
      3.2700	 22.7430	 22.7431	 -7.4672	  0.0000
      3.2800	 22.7171	 22.7171	 -7.4672	  0.0000
      3.2900	 22.6903	 22.6904	 -7.4672	  0.0000
      3.3000	 22.6629	 22.6629	 -7.4672	  0.0000
      3.3100	 22.6348	 22.6348	 -7.4672	  0.0000
      3.3200	 22.6061	 22.6061	 -7.4672	  0.0000
      3.3300	 22.5769	 22.5769	 -7.4672	  0.0000
      3.3400	 22.5473	 22.5473	 -7.4672	  0.0000
      3.3500	 22.5174	 22.5174	 -7.4672	  0.0000
      3.3600	 22.4872	 22.4872	 -7.4672	  0.0000
      3.3700	 22.4568	 22.4568	 -7.4671	  0.0000
      3.3800	 22.4261	 22.4261	 -7.4672	  0.0000
      3.3900	 22.3954	 22.3954	 -7.4671	  0.0000
      3.4000	 22.3645	 22.3646	 -7.4672	  0.0000
      3.4100	 22.3337	 22.3337	 -7.4672	  0.0000
      3.4200	 22.3028	 22.3028	 -7.4672	  0.0000
      3.4300	 22.2720	 22.2720	 -7.4672	  0.0000
      3.4400	 22.2412	 22.2412	 -7.4672	  0.0000
      3.4500	 22.2106	 22.2106	 -7.4672	  0.0000
      3.4600	 22.1800	 22.1800	 -7.4672	  0.0000
      3.4700	 22.1497	 22.1497	 -7.4672	  0.0000
      3.4800	 22.1194	 22.1194	 -7.4671	  0.0000
      3.4900	 22.0894	 22.0894	 -7.4672	  0.0000
      3.5000	 22.0596	 22.0596	 -7.4672	  0.0000
      3.5100	 22.0300	 22.0300	 -7.4672	  0.0000
      3.5200	 22.0007	 22.0007	 -7.4671	  0.0000
      3.5300	 21.9716	 21.9716	 -7.4672	  0.0000
      3.5400	 21.9427	 21.9427	 -7.4672	  0.0000
      3.5500	 21.9142	 21.9142	 -7.4672	  0.0000
      3.5600	 21.8859	 21.8859	 -7.4672	  0.0000
      3.5700	 21.8579	 21.8579	 -7.4671	  0.0000
      3.5800	 21.8302	 21.8302	 -7.4672	  0.0000
      3.5900	 21.8028	 21.8028	 -7.4671	  0.0000
      3.6000	 21.7758	 21.7758	 -7.4671	  0.0000
      3.6100	 21.7490	 21.7490	 -7.4671	  0.0000
      3.6200	 21.7225	 21.7225	 -7.4672	  0.0000
      3.6300	 21.6964	 21.6964	 -7.4671	  0.0000
      3.6400	 21.6706	 21.6706	 -7.4672	  0.0000
      3.6500	 21.6451	 21.6451	 -7.4672	  0.0000
      3.6600	 21.6199	 21.6199	 -7.4672	  0.0000
      3.6700	 21.5951	 21.5951	 -7.4671	  0.0000
      3.6800	 21.5706	 21.5706	 -7.4672	  0.0000
      3.6900	 21.5464	 21.5464	 -7.4672	  0.0000
      3.7000	 21.5225	 21.5225	 -7.4671	  0.0000
      3.7100	 21.4990	 21.4990	 -7.4671	  0.0000
      3.7200	 21.4758	 21.4758	 -7.4671	  0.0000
      3.7300	 21.4529	 21.4529	 -7.4672	  0.0000
      3.7400	 21.4304	 21.4304	 -7.4671	  0.0000
      3.7500	 21.4082	 21.4082	 -7.4672	  0.0000
      3.7600	 21.3863	 21.3863	 -7.4672	  0.0000
      3.7700	 21.3647	 21.3647	 -7.4672	  0.0000
      3.7800	 21.3435	 21.3435	 -7.4671	  0.0000
      3.7900	 21.3226	 21.3226	 -7.4671	  0.0000
      3.8000	 21.3020	 21.3020	 -7.4672	  0.0000
      3.8100	 21.2817	 21.2817	 -7.4672	  0.0000
      3.8200	 21.2618	 21.2618	 -7.4671	  0.0000
      3.8300	 21.2422	 21.2422	 -7.4671	  0.0000
      3.8400	 21.2229	 21.2229	 -7.4671	  0.0000
      3.8500	 21.2039	 21.2039	 -7.4672	  0.0000
      3.8600	 21.1853	 21.1853	 -7.4671	  0.0000
      3.8700	 21.1670	 21.1670	 -7.4671	  0.0000
      3.8800	 21.1490	 21.1490	 -7.4671	  0.0000
      3.8900	 21.1313	 21.1313	 -7.4672	  0.0000
      3.9000	 21.1139	 21.1139	 -7.4671	  0.0000
      3.9100	 21.0969	 21.0969	 -7.4672	  0.0000
      3.9200	 21.0802	 21.0802	 -7.4671	  0.0000
      3.9300	 21.0638	 21.0638	 -7.4671	  0.0000
      3.9400	 21.0477	 21.0477	 -7.4671	  0.0000
      3.9500	 21.0320	 21.0320	 -7.4672	  0.0000
      3.9600	 21.0166	 21.0166	 -7.4671	  0.0000
      3.9700	 21.0015	 21.0015	 -7.4671	  0.0000
      3.9800	 20.9867	 20.9867	 -7.4672	  0.0000
      3.9900	 20.9722	 20.9722	 -7.4671	  0.0000
      4.0000	 20.9581	 20.9581	 -7.4671	  0.0000
      4.0100	 20.9443	 20.9443	 -7.4671	  0.0000
      4.0200	 20.9309	 20.9309	 -7.4671	  0.0000
      4.0300	 20.9177	 20.9177	 -7.4671	  0.0000
      4.0400	 20.9049	 20.9050	 -7.4672	  0.0000
      4.0500	 20.8925	 20.8925	 -7.4671	  0.0000
      4.0600	 20.8804	 20.8804	 -7.4671	  0.0000
      4.0700	 20.8686	 20.8686	 -7.4671	  0.0000
      4.0800	 20.8572	 20.8572	 -7.4671	  0.0000
      4.0900	 20.8461	 20.8461	 -7.4671	  0.0000
      4.1000	 20.8354	 20.8354	 -7.4671	  0.0000
      4.1100	 20.8250	 20.8250	 -7.4671	  0.0000
      4.1200	 20.8150	 20.8150	 -7.4671	  0.0000
      4.1300	 20.8053	 20.8053	 -7.4671	  0.0000
      4.1400	 20.7960	 20.7960	 -7.4671	  0.0000
      4.1500	 20.7871	 20.7871	 -7.4671	  0.0000
      4.1600	 20.7786	 20.7786	 -7.4671	  0.0000
      4.1700	 20.7705	 20.7705	 -7.4671	  0.0000
      4.1800	 20.7627	 20.7627	 -7.4671	  0.0000
      4.1900	 20.7553	 20.7553	 -7.4671	  0.0000
      4.2000	 20.7484	 20.7484	 -7.4671	  0.0000
      4.2100	 20.7418	 20.7418	 -7.4671	  0.0000
      4.2200	 20.7357	 20.7357	 -7.4671	  0.0000
      4.2300	 20.7300	 20.7300	 -7.4671	  0.0000
      4.2400	 20.7247	 20.7247	 -7.4671	  0.0000
      4.2500	 20.7199	 20.7198	 -7.4671	  0.0000
      4.2600	 20.7155	 20.7155	 -7.4671	  0.0000
      4.2700	 20.7115	 20.7115	 -7.4671	  0.0000
      4.2800	 20.7081	 20.7081	 -7.4671	  0.0000
      4.2900	 20.7051	 20.7051	 -7.4671	  0.0000
      4.3000	 20.7027	 20.7027	 -7.4671	  0.0000
      4.3100	 20.7007	 20.7007	 -7.4671	  0.0000
      4.3200	 20.6993	 20.6992	 -7.4671	  0.0000
      4.3300	 20.6984	 20.6983	 -7.4671	  0.0000
      4.3400	 20.6980	 20.6980	 -7.4671	  0.0000
      4.3500	 20.6982	 20.6982	 -7.4671	  0.0000
      4.3600	 20.6990	 20.6990	 -7.4671	  0.0000
      4.3700	 20.7004	 20.7004	 -7.4671	  0.0000
      4.3800	 20.7024	 20.7024	 -7.4671	  0.0000
      4.3900	 20.7051	 20.7051	 -7.4671	  0.0000
      4.4000	 20.7084	 20.7084	 -7.4671	  0.0000
      4.4100	 20.7124	 20.7124	 -7.4671	  0.0000
      4.4200	 20.7171	 20.7171	 -7.4671	  0.0000
      4.4300	 20.7226	 20.7225	 -7.4671	  0.0000
      4.4400	 20.7288	 20.7287	 -7.4671	  0.0000
      4.4500	 20.7357	 20.7357	 -7.4671	  0.0000
      4.4600	 20.7435	 20.7435	 -7.4671	  0.0000
      4.4700	 20.7522	 20.7522	 -7.4671	  0.0000
      4.4800	 20.7617	 20.7617	 -7.4671	  0.0000
      4.4900	 20.7721	 20.7721	 -7.4671	  0.0000
      4.5000	 20.7835	 20.7835	 -7.4671	  0.0000
      4.5100	 20.7959	 20.7959	 -7.4671	  0.0000
      4.5200	 20.8093	 20.8093	 -7.4671	  0.0000
      4.5300	 20.8238	 20.8238	 -7.4671	  0.0000
      4.5400	 20.8395	 20.8394	 -7.4671	  0.0000
      4.5500	 20.8563	 20.8562	 -7.4671	  0.0000
      4.5600	 20.8743	 20.8743	 -7.4671	  0.0000
      4.5700	 20.8936	 20.8936	 -7.4671	  0.0000
      4.5800	 20.9143	 20.9143	 -7.4671	  0.0000
      4.5900	 20.9364	 20.9364	 -7.4671	  0.0000
      4.6000	 20.9600	 20.9600	 -7.4671	  0.0000
      4.6100	 20.9852	 20.9852	 -7.4671	  0.0000
      4.6200	 21.0120	 21.0120	 -7.4671	  0.0000
      4.6300	 21.0406	 21.0405	 -7.4671	  0.0000
      4.6400	 21.0709	 21.0709	 -7.4671	  0.0000
      4.6500	 21.1033	 21.1032	 -7.4671	  0.0000
      4.6600	 21.1376	 21.1376	 -7.4671	  0.0000
      4.6700	 21.1741	 21.1741	 -7.4671	  0.0000
      4.6800	 21.2129	 21.2129	 -7.4671	  0.0000
      4.6900	 21.2542	 21.2542	 -7.4671	  0.0000
      4.7000	 21.2980	 21.2980	 -7.4671	  0.0000
      4.7100	 21.3446	 21.3446	 -7.4671	  0.0000
      4.7200	 21.3942	 21.3941	 -7.4671	  0.0000
      4.7300	 21.4468	 21.4468	 -7.4671	  0.0000
      4.7400	 21.5029	 21.5029	 -7.4671	  0.0000
      4.7500	 21.5626	 21.5625	 -7.4671	  0.0000
      4.7600	 21.6261	 21.6261	 -7.4671	  0.0000
      4.7700	 21.6939	 21.6939	 -7.4671	  0.0000
      4.7800	 21.7663	 21.7662	 -7.4671	  0.0000
      4.7900	 21.8436	 21.8435	 -7.4671	  0.0000
      4.8000	 21.9263	 21.9262	 -7.4671	  0.0000
      4.8100	 22.0150	 22.0149	 -7.4671	  0.0000
      4.8200	 22.1102	 22.1101	 -7.4671	  0.0000
      4.8300	 22.2127	 22.2126	 -7.4671	  0.0000
      4.8400	 22.3233	 22.3232	 -7.4671	  0.0000
      4.8500	 22.4430	 22.4430	 -7.4671	  0.0000
      4.8600	 22.5731	 22.5730	 -7.4671	  0.0000
      4.8700	 22.7150	 22.7150	 -7.4671	  0.0000
      4.8800	 22.8706	 22.8706	 -7.4671	  0.0000
      4.8900	 23.0423	 23.0423	 -7.4671	  0.0000
      4.9000	 23.2332	 23.2331	 -7.4671	  0.0000
      4.9100	 23.4474	 23.4473	 -7.4671	  0.0000
      4.9200	 23.6906	 23.6905	 -7.4671	  0.0000
      4.9300	 23.9710	 23.9710	 -7.4671	  0.0000
      4.9400	 24.3010	 24.3009	 -7.4671	  0.0000
      4.9500	 24.7007	 24.7007	 -7.4671	  0.0000
      4.9600	 25.2063	 25.2062	 -7.4671	  0.0000
      4.9700	 25.8936	 25.8935	 -7.4671	  0.0000
      4.9800	 26.9794	 26.9793	 -7.4671	  0.0000
      4.9900	 29.8686	 29.8685	 -7.4671	  0.0000
      5.0000	 29.8680	 29.8682	 -7.4673	  0.0000
